{"_id":{"$oid":"5aa869b60d054e0004f8bda2"},"data":[{"control":false,"questionScores":[2399,27,23,30,2395,27,2435,31,2413,2398],"questionIndicies":[14,20,25,46,35,44,30,0,4,33],"judgmentIndicies":[0,1],"internal_node_id":"0.0-0.0","time_elapsed":5809,"trial_index":0,"trial_type":"survey-multi-choice","responses":"{\"Q0\":\"I consent to participate\"}","rt":5791},{"control":false,"questionScores":[2399,27,23,30,2395,27,2435,31,2413,2398],"questionIndicies":[14,20,25,46,35,44,30,0,4,33],"judgmentIndicies":[0,1],"internal_node_id":"0.0-1.0","time_elapsed":9062,"trial_index":1,"trial_type":"instructions","rt":2250,"view_history":"[{\"page_index\":0,\"viewing_time\":2249}]"},{"control":false,"questionScores":[2399,27,23,30,2395,27,2435,31,2413,2398],"questionIndicies":[14,20,25,46,35,44,30,0,4,33],"judgmentIndicies":[0,1],"internal_node_id":"0.0-2.0","time_elapsed":12733,"trial_index":2,"trial_type":"instructions","rt":2670,"view_history":"[{\"page_index\":0,\"viewing_time\":2669}]"},{"control":false,"questionScores":[2399,27,23,30,2395,27,2435,31,2413,2398],"questionIndicies":[14,20,25,46,35,44,30,0,4,33],"judgmentIndicies":[0,1],"internal_node_id":"0.0-3.0-0.0","time_elapsed":18528,"trial_index":3,"trial_type":"survey-likert","responses":"{\"Q0\":\"3\",\"Q1\":\"3\"}","rt":4786},{"control":false,"questionScores":[2399,27,23,30,2395,27,2435,31,2413,2398],"questionIndicies":[14,20,25,46,35,44,30,0,4,33],"judgmentIndicies":[0,1],"internal_node_id":"0.0-3.0-1.0","time_elapsed":22765,"trial_index":4,"trial_type":"survey-likert","responses":"{\"Q0\":\"4\",\"Q1\":\"3\"}","rt":3230},{"control":false,"questionScores":[2399,27,23,30,2395,27,2435,31,2413,2398],"questionIndicies":[14,20,25,46,35,44,30,0,4,33],"judgmentIndicies":[0,1],"internal_node_id":"0.0-3.0-2.0","time_elapsed":26951,"trial_index":5,"trial_type":"survey-likert","responses":"{\"Q0\":\"4\",\"Q1\":\"4\"}","rt":3178},{"control":false,"questionScores":[2399,27,23,30,2395,27,2435,31,2413,2398],"questionIndicies":[14,20,25,46,35,44,30,0,4,33],"judgmentIndicies":[0,1],"internal_node_id":"0.0-3.0-3.0","time_elapsed":31086,"trial_index":6,"trial_type":"survey-likert","responses":"{\"Q0\":\"2\",\"Q1\":\"3\"}","rt":3129},{"control":false,"questionScores":[2399,27,23,30,2395,27,2435,31,2413,2398],"questionIndicies":[14,20,25,46,35,44,30,0,4,33],"judgmentIndicies":[0,1],"internal_node_id":"0.0-3.0-4.0","time_elapsed":37951,"trial_index":7,"trial_type":"survey-likert","responses":"{\"Q0\":\"3\",\"Q1\":\"3\"}","rt":5860},{"control":false,"questionScores":[2399,27,23,30,2395,27,2435,31,2413,2398],"questionIndicies":[14,20,25,46,35,44,30,0,4,33],"judgmentIndicies":[0,1],"internal_node_id":"0.0-3.0-5.0","time_elapsed":42206,"trial_index":8,"trial_type":"survey-likert","responses":"{\"Q0\":\"3\",\"Q1\":\"4\"}","rt":3250},{"control":false,"questionScores":[2399,27,23,30,2395,27,2435,31,2413,2398],"questionIndicies":[14,20,25,46,35,44,30,0,4,33],"judgmentIndicies":[0,1],"internal_node_id":"0.0-3.0-6.0","time_elapsed":46950,"trial_index":9,"trial_type":"survey-likert","responses":"{\"Q0\":\"2\",\"Q1\":\"3\"}","rt":3739},{"control":false,"questionScores":[2399,27,23,30,2395,27,2435,31,2413,2398],"questionIndicies":[14,20,25,46,35,44,30,0,4,33],"judgmentIndicies":[0,1],"internal_node_id":"0.0-3.0-7.0","time_elapsed":54246,"trial_index":10,"trial_type":"survey-likert","responses":"{\"Q0\":\"3\",\"Q1\":\"3\"}","rt":6291},{"control":false,"questionScores":[2399,27,23,30,2395,27,2435,31,2413,2398],"questionIndicies":[14,20,25,46,35,44,30,0,4,33],"judgmentIndicies":[0,1],"internal_node_id":"0.0-3.0-8.0","time_elapsed":70542,"trial_index":11,"trial_type":"survey-likert","responses":"{\"Q0\":\"3\",\"Q1\":\"4\"}","rt":15006},{"control":false,"questionScores":[2399,27,23,30,2395,27,2435,31,2413,2398],"questionIndicies":[14,20,25,46,35,44,30,0,4,33],"judgmentIndicies":[0,1],"internal_node_id":"0.0-3.0-9.0","time_elapsed":73647,"trial_index":12,"trial_type":"survey-likert","responses":"{\"Q0\":\"3\",\"Q1\":\"3\"}","rt":2100}],"__v":0}
{"_id":{"$oid":"5aa869c80d054e0004f8bda3"},"data":[{"control":false,"questionScores":[2398,45,2396,2407,20,2406,30,-4,25,2409],"questionIndicies":[17,0,31,9,37,32,41,28,49,33],"judgmentIndicies":[0,1],"internal_node_id":"0.0-0.0","time_elapsed":5503,"trial_index":0,"trial_type":"survey-multi-choice","responses":"{\"Q0\":\"I consent to participate\"}","rt":5494},{"control":false,"questionScores":[2398,45,2396,2407,20,2406,30,-4,25,2409],"questionIndicies":[17,0,31,9,37,32,41,28,49,33],"judgmentIndicies":[0,1],"internal_node_id":"0.0-1.0","time_elapsed":7541,"trial_index":1,"trial_type":"instructions","rt":1036,"view_history":"[{\"page_index\":0,\"viewing_time\":1036}]"},{"control":false,"questionScores":[2398,45,2396,2407,20,2406,30,-4,25,2409],"questionIndicies":[17,0,31,9,37,32,41,28,49,33],"judgmentIndicies":[0,1],"internal_node_id":"0.0-2.0","time_elapsed":11117,"trial_index":2,"trial_type":"instructions","rt":2575,"view_history":"[{\"page_index\":0,\"viewing_time\":2574}]"},{"control":false,"questionScores":[2398,45,2396,2407,20,2406,30,-4,25,2409],"questionIndicies":[17,0,31,9,37,32,41,28,49,33],"judgmentIndicies":[0,1],"internal_node_id":"0.0-3.0-0.0","time_elapsed":17790,"trial_index":3,"trial_type":"survey-likert","responses":"{\"Q0\":\"3\",\"Q1\":\"3\"}","rt":5671},{"control":false,"questionScores":[2398,45,2396,2407,20,2406,30,-4,25,2409],"questionIndicies":[17,0,31,9,37,32,41,28,49,33],"judgmentIndicies":[0,1],"internal_node_id":"0.0-3.0-1.0","time_elapsed":24132,"trial_index":4,"trial_type":"survey-likert","responses":"{\"Q0\":\"2\",\"Q1\":\"1\"}","rt":5333},{"control":false,"questionScores":[2398,45,2396,2407,20,2406,30,-4,25,2409],"questionIndicies":[17,0,31,9,37,32,41,28,49,33],"judgmentIndicies":[0,1],"internal_node_id":"0.0-3.0-2.0","time_elapsed":30869,"trial_index":5,"trial_type":"survey-likert","responses":"{\"Q0\":\"2\",\"Q1\":\"2\"}","rt":5731},{"control":false,"questionScores":[2398,45,2396,2407,20,2406,30,-4,25,2409],"questionIndicies":[17,0,31,9,37,32,41,28,49,33],"judgmentIndicies":[0,1],"internal_node_id":"0.0-3.0-3.0","time_elapsed":39907,"trial_index":6,"trial_type":"survey-likert","responses":"{\"Q0\":\"1\",\"Q1\":\"2\"}","rt":8036},{"control":false,"questionScores":[2398,45,2396,2407,20,2406,30,-4,25,2409],"questionIndicies":[17,0,31,9,37,32,41,28,49,33],"judgmentIndicies":[0,1],"internal_node_id":"0.0-3.0-4.0","time_elapsed":46203,"trial_index":7,"trial_type":"survey-likert","responses":"{\"Q0\":\"3\",\"Q1\":\"3\"}","rt":5294},{"control":false,"questionScores":[2398,45,2396,2407,20,2406,30,-4,25,2409],"questionIndicies":[17,0,31,9,37,32,41,28,49,33],"judgmentIndicies":[0,1],"internal_node_id":"0.0-3.0-5.0","time_elapsed":51779,"trial_index":8,"trial_type":"survey-likert","responses":"{\"Q0\":\"2\",\"Q1\":\"2\"}","rt":4574},{"control":false,"questionScores":[2398,45,2396,2407,20,2406,30,-4,25,2409],"questionIndicies":[17,0,31,9,37,32,41,28,49,33],"judgmentIndicies":[0,1],"internal_node_id":"0.0-3.0-6.0","time_elapsed":57483,"trial_index":9,"trial_type":"survey-likert","responses":"{\"Q0\":\"1\",\"Q1\":\"0\"}","rt":4702},{"control":false,"questionScores":[2398,45,2396,2407,20,2406,30,-4,25,2409],"questionIndicies":[17,0,31,9,37,32,41,28,49,33],"judgmentIndicies":[0,1],"internal_node_id":"0.0-3.0-7.0","time_elapsed":64463,"trial_index":10,"trial_type":"survey-likert","responses":"{\"Q0\":\"1\",\"Q1\":\"3\"}","rt":5977},{"control":false,"questionScores":[2398,45,2396,2407,20,2406,30,-4,25,2409],"questionIndicies":[17,0,31,9,37,32,41,28,49,33],"judgmentIndicies":[0,1],"internal_node_id":"0.0-3.0-8.0","time_elapsed":71143,"trial_index":11,"trial_type":"survey-likert","responses":"{\"Q0\":\"2\",\"Q1\":\"2\"}","rt":5676},{"control":false,"questionScores":[2398,45,2396,2407,20,2406,30,-4,25,2409],"questionIndicies":[17,0,31,9,37,32,41,28,49,33],"judgmentIndicies":[0,1],"internal_node_id":"0.0-3.0-9.0","time_elapsed":78535,"trial_index":12,"trial_type":"survey-likert","responses":"{\"Q0\":\"1\",\"Q1\":\"2\"}","rt":6390}],"__v":0}
{"_id":{"$oid":"5aa869e90d054e0004f8bda4"},"data":[{"control":false,"questionScores":[2417,15,2410,29,2389,24,26,2395,21,2403],"questionIndicies":[43,19,12,23,8,13,30,14,9,0],"judgmentIndicies":[0,1],"internal_node_id":"0.0-0.0","time_elapsed":3348,"trial_index":0,"trial_type":"survey-multi-choice","responses":"{\"Q0\":\"I consent to participate\"}","rt":3340},{"control":false,"questionScores":[2417,15,2410,29,2389,24,26,2395,21,2403],"questionIndicies":[43,19,12,23,8,13,30,14,9,0],"judgmentIndicies":[0,1],"internal_node_id":"0.0-1.0","time_elapsed":6503,"trial_index":1,"trial_type":"instructions","rt":2149,"view_history":"[{\"page_index\":0,\"viewing_time\":2149}]"},{"control":false,"questionScores":[2417,15,2410,29,2389,24,26,2395,21,2403],"questionIndicies":[43,19,12,23,8,13,30,14,9,0],"judgmentIndicies":[0,1],"internal_node_id":"0.0-2.0","time_elapsed":10459,"trial_index":2,"trial_type":"instructions","rt":2955,"view_history":"[{\"page_index\":0,\"viewing_time\":2955}]"},{"control":false,"questionScores":[2417,15,2410,29,2389,24,26,2395,21,2403],"questionIndicies":[43,19,12,23,8,13,30,14,9,0],"judgmentIndicies":[0,1],"internal_node_id":"0.0-3.0-0.0","time_elapsed":20988,"trial_index":3,"trial_type":"survey-likert","responses":"{\"Q0\":\"2\",\"Q1\":\"4\"}","rt":9522},{"control":false,"questionScores":[2417,15,2410,29,2389,24,26,2395,21,2403],"questionIndicies":[43,19,12,23,8,13,30,14,9,0],"judgmentIndicies":[0,1],"internal_node_id":"0.0-3.0-1.0","time_elapsed":29584,"trial_index":4,"trial_type":"survey-likert","responses":"{\"Q0\":\"6\",\"Q1\":\"3\"}","rt":7590},{"control":false,"questionScores":[2417,15,2410,29,2389,24,26,2395,21,2403],"questionIndicies":[43,19,12,23,8,13,30,14,9,0],"judgmentIndicies":[0,1],"internal_node_id":"0.0-3.0-2.0","time_elapsed":35070,"trial_index":5,"trial_type":"survey-likert","responses":"{\"Q0\":\"4\",\"Q1\":\"1\"}","rt":4481},{"control":false,"questionScores":[2417,15,2410,29,2389,24,26,2395,21,2403],"questionIndicies":[43,19,12,23,8,13,30,14,9,0],"judgmentIndicies":[0,1],"internal_node_id":"0.0-3.0-3.0","time_elapsed":40700,"trial_index":6,"trial_type":"survey-likert","responses":"{\"Q0\":\"4\",\"Q1\":\"4\"}","rt":4625},{"control":false,"questionScores":[2417,15,2410,29,2389,24,26,2395,21,2403],"questionIndicies":[43,19,12,23,8,13,30,14,9,0],"judgmentIndicies":[0,1],"internal_node_id":"0.0-3.0-4.0","time_elapsed":47423,"trial_index":7,"trial_type":"survey-likert","responses":"{\"Q0\":\"3\",\"Q1\":\"1\"}","rt":5716},{"control":false,"questionScores":[2417,15,2410,29,2389,24,26,2395,21,2403],"questionIndicies":[43,19,12,23,8,13,30,14,9,0],"judgmentIndicies":[0,1],"internal_node_id":"0.0-3.0-5.0","time_elapsed":58126,"trial_index":8,"trial_type":"survey-likert","responses":"{\"Q0\":\"0\",\"Q1\":\"0\"}","rt":9696},{"control":false,"questionScores":[2417,15,2410,29,2389,24,26,2395,21,2403],"questionIndicies":[43,19,12,23,8,13,30,14,9,0],"judgmentIndicies":[0,1],"internal_node_id":"0.0-3.0-6.0","time_elapsed":64991,"trial_index":9,"trial_type":"survey-likert","responses":"{\"Q0\":\"4\",\"Q1\":\"1\"}","rt":5859},{"control":false,"questionScores":[2417,15,2410,29,2389,24,26,2395,21,2403],"questionIndicies":[43,19,12,23,8,13,30,14,9,0],"judgmentIndicies":[0,1],"internal_node_id":"0.0-3.0-7.0","time_elapsed":71512,"trial_index":10,"trial_type":"survey-likert","responses":"{\"Q0\":\"6\",\"Q1\":\"5\"}","rt":5513},{"control":false,"questionScores":[2417,15,2410,29,2389,24,26,2395,21,2403],"questionIndicies":[43,19,12,23,8,13,30,14,9,0],"judgmentIndicies":[0,1],"internal_node_id":"0.0-3.0-8.0","time_elapsed":79614,"trial_index":11,"trial_type":"survey-likert","responses":"{\"Q0\":\"0\",\"Q1\":\"0\"}","rt":7097},{"control":false,"questionScores":[2417,15,2410,29,2389,24,26,2395,21,2403],"questionIndicies":[43,19,12,23,8,13,30,14,9,0],"judgmentIndicies":[0,1],"internal_node_id":"0.0-3.0-9.0","time_elapsed":85484,"trial_index":12,"trial_type":"survey-likert","responses":"{\"Q0\":\"6\",\"Q1\":\"4\"}","rt":4864}],"__v":0}
{"_id":{"$oid":"5aa869ea0d054e0004f8bda5"},"data":[{"control":false,"questionScores":[22,2408,2400,2419,18,27,35,2400,29,2415],"questionIndicies":[11,13,3,27,8,49,31,20,1,42],"judgmentIndicies":[0,1],"internal_node_id":"0.0-0.0","time_elapsed":11590,"trial_index":0,"trial_type":"survey-multi-choice","responses":"{\"Q0\":\"I consent to participate\"}","rt":11577},{"control":false,"questionScores":[22,2408,2400,2419,18,27,35,2400,29,2415],"questionIndicies":[11,13,3,27,8,49,31,20,1,42],"judgmentIndicies":[0,1],"internal_node_id":"0.0-1.0","time_elapsed":15771,"trial_index":1,"trial_type":"instructions","rt":3176,"view_history":"[{\"page_index\":0,\"viewing_time\":3173}]"},{"control":false,"questionScores":[22,2408,2400,2419,18,27,35,2400,29,2415],"questionIndicies":[11,13,3,27,8,49,31,20,1,42],"judgmentIndicies":[0,1],"internal_node_id":"0.0-2.0","time_elapsed":23312,"trial_index":2,"trial_type":"instructions","rt":6538,"view_history":"[{\"page_index\":0,\"viewing_time\":6537}]"},{"control":false,"questionScores":[22,2408,2400,2419,18,27,35,2400,29,2415],"questionIndicies":[11,13,3,27,8,49,31,20,1,42],"judgmentIndicies":[0,1],"internal_node_id":"0.0-3.0-0.0","time_elapsed":41254,"trial_index":3,"trial_type":"survey-likert","responses":"{\"Q0\":\"0\",\"Q1\":\"1\"}","rt":16919},{"control":false,"questionScores":[22,2408,2400,2419,18,27,35,2400,29,2415],"questionIndicies":[11,13,3,27,8,49,31,20,1,42],"judgmentIndicies":[0,1],"internal_node_id":"0.0-3.0-1.0","time_elapsed":52110,"trial_index":4,"trial_type":"survey-likert","responses":"{\"Q0\":\"6\",\"Q1\":\"5\"}","rt":9839},{"control":false,"questionScores":[22,2408,2400,2419,18,27,35,2400,29,2415],"questionIndicies":[11,13,3,27,8,49,31,20,1,42],"judgmentIndicies":[0,1],"internal_node_id":"0.0-3.0-2.0","time_elapsed":62821,"trial_index":5,"trial_type":"survey-likert","responses":"{\"Q0\":\"6\",\"Q1\":\"4\"}","rt":9695},{"control":false,"questionScores":[22,2408,2400,2419,18,27,35,2400,29,2415],"questionIndicies":[11,13,3,27,8,49,31,20,1,42],"judgmentIndicies":[0,1],"internal_node_id":"0.0-3.0-3.0","time_elapsed":71396,"trial_index":6,"trial_type":"survey-likert","responses":"{\"Q0\":\"4\",\"Q1\":\"3\"}","rt":7559},{"control":false,"questionScores":[22,2408,2400,2419,18,27,35,2400,29,2415],"questionIndicies":[11,13,3,27,8,49,31,20,1,42],"judgmentIndicies":[0,1],"internal_node_id":"0.0-3.0-4.0","time_elapsed":80055,"trial_index":7,"trial_type":"survey-likert","responses":"{\"Q0\":\"3\",\"Q1\":\"3\"}","rt":7645},{"control":false,"questionScores":[22,2408,2400,2419,18,27,35,2400,29,2415],"questionIndicies":[11,13,3,27,8,49,31,20,1,42],"judgmentIndicies":[0,1],"internal_node_id":"0.0-3.0-5.0","time_elapsed":90855,"trial_index":8,"trial_type":"survey-likert","responses":"{\"Q0\":\"1\",\"Q1\":\"2\"}","rt":9786},{"control":false,"questionScores":[22,2408,2400,2419,18,27,35,2400,29,2415],"questionIndicies":[11,13,3,27,8,49,31,20,1,42],"judgmentIndicies":[0,1],"internal_node_id":"0.0-3.0-6.0","time_elapsed":97775,"trial_index":9,"trial_type":"survey-likert","responses":"{\"Q0\":\"1\",\"Q1\":\"2\"}","rt":5907},{"control":false,"questionScores":[22,2408,2400,2419,18,27,35,2400,29,2415],"questionIndicies":[11,13,3,27,8,49,31,20,1,42],"judgmentIndicies":[0,1],"internal_node_id":"0.0-3.0-7.0","time_elapsed":109673,"trial_index":10,"trial_type":"survey-likert","responses":"{\"Q0\":\"4\",\"Q1\":\"5\"}","rt":10885},{"control":false,"questionScores":[22,2408,2400,2419,18,27,35,2400,29,2415],"questionIndicies":[11,13,3,27,8,49,31,20,1,42],"judgmentIndicies":[0,1],"internal_node_id":"0.0-3.0-8.0","time_elapsed":117422,"trial_index":11,"trial_type":"survey-likert","responses":"{\"Q0\":\"6\",\"Q1\":\"6\"}","rt":6736},{"control":false,"questionScores":[22,2408,2400,2419,18,27,35,2400,29,2415],"questionIndicies":[11,13,3,27,8,49,31,20,1,42],"judgmentIndicies":[0,1],"internal_node_id":"0.0-3.0-9.0","time_elapsed":125348,"trial_index":12,"trial_type":"survey-likert","responses":"{\"Q0\":\"4\",\"Q1\":\"5\"}","rt":6907}],"__v":0}
{"_id":{"$oid":"5aa869ec0d054e0004f8bda6"},"data":[{"control":false,"questionScores":[17,2390,29,2403,2399,48,18,2404,2405,21],"questionIndicies":[0,29,1,10,17,20,23,26,38,16],"judgmentIndicies":[0,1],"internal_node_id":"0.0-0.0","time_elapsed":10459,"trial_index":0,"trial_type":"survey-multi-choice","responses":"{\"Q0\":\"I consent to participate\"}","rt":10441},{"control":false,"questionScores":[17,2390,29,2403,2399,48,18,2404,2405,21],"questionIndicies":[0,29,1,10,17,20,23,26,38,16],"judgmentIndicies":[0,1],"internal_node_id":"0.0-1.0","time_elapsed":15543,"trial_index":1,"trial_type":"instructions","rt":4081,"view_history":"[{\"page_index\":0,\"viewing_time\":4081}]"},{"control":false,"questionScores":[17,2390,29,2403,2399,48,18,2404,2405,21],"questionIndicies":[0,29,1,10,17,20,23,26,38,16],"judgmentIndicies":[0,1],"internal_node_id":"0.0-2.0","time_elapsed":31621,"trial_index":2,"trial_type":"instructions","rt":15078,"view_history":"[{\"page_index\":0,\"viewing_time\":15078}]"},{"control":false,"questionScores":[17,2390,29,2403,2399,48,18,2404,2405,21],"questionIndicies":[0,29,1,10,17,20,23,26,38,16],"judgmentIndicies":[0,1],"internal_node_id":"0.0-3.0-0.0","time_elapsed":44505,"trial_index":3,"trial_type":"survey-likert","responses":"{\"Q0\":\"5\",\"Q1\":\"4\"}","rt":11880},{"control":false,"questionScores":[17,2390,29,2403,2399,48,18,2404,2405,21],"questionIndicies":[0,29,1,10,17,20,23,26,38,16],"judgmentIndicies":[0,1],"internal_node_id":"0.0-3.0-1.0","time_elapsed":53729,"trial_index":4,"trial_type":"survey-likert","responses":"{\"Q0\":\"2\",\"Q1\":\"1\"}","rt":8219},{"control":false,"questionScores":[17,2390,29,2403,2399,48,18,2404,2405,21],"questionIndicies":[0,29,1,10,17,20,23,26,38,16],"judgmentIndicies":[0,1],"internal_node_id":"0.0-3.0-2.0","time_elapsed":63361,"trial_index":5,"trial_type":"survey-likert","responses":"{\"Q0\":\"1\",\"Q1\":\"2\"}","rt":8629},{"control":false,"questionScores":[17,2390,29,2403,2399,48,18,2404,2405,21],"questionIndicies":[0,29,1,10,17,20,23,26,38,16],"judgmentIndicies":[0,1],"internal_node_id":"0.0-3.0-3.0","time_elapsed":72889,"trial_index":6,"trial_type":"survey-likert","responses":"{\"Q0\":\"2\",\"Q1\":\"2\"}","rt":8525},{"control":false,"questionScores":[17,2390,29,2403,2399,48,18,2404,2405,21],"questionIndicies":[0,29,1,10,17,20,23,26,38,16],"judgmentIndicies":[0,1],"internal_node_id":"0.0-3.0-4.0","time_elapsed":79581,"trial_index":7,"trial_type":"survey-likert","responses":"{\"Q0\":\"4\",\"Q1\":\"5\"}","rt":5687},{"control":false,"questionScores":[17,2390,29,2403,2399,48,18,2404,2405,21],"questionIndicies":[0,29,1,10,17,20,23,26,38,16],"judgmentIndicies":[0,1],"internal_node_id":"0.0-3.0-5.0","time_elapsed":93145,"trial_index":8,"trial_type":"survey-likert","responses":"{\"Q0\":\"4\",\"Q1\":\"3\"}","rt":12561},{"control":false,"questionScores":[17,2390,29,2403,2399,48,18,2404,2405,21],"questionIndicies":[0,29,1,10,17,20,23,26,38,16],"judgmentIndicies":[0,1],"internal_node_id":"0.0-3.0-6.0","time_elapsed":102209,"trial_index":9,"trial_type":"survey-likert","responses":"{\"Q0\":\"2\",\"Q1\":\"1\"}","rt":8060},{"control":false,"questionScores":[17,2390,29,2403,2399,48,18,2404,2405,21],"questionIndicies":[0,29,1,10,17,20,23,26,38,16],"judgmentIndicies":[0,1],"internal_node_id":"0.0-3.0-7.0","time_elapsed":109977,"trial_index":10,"trial_type":"survey-likert","responses":"{\"Q0\":\"6\",\"Q1\":\"5\"}","rt":6765},{"control":false,"questionScores":[17,2390,29,2403,2399,48,18,2404,2405,21],"questionIndicies":[0,29,1,10,17,20,23,26,38,16],"judgmentIndicies":[0,1],"internal_node_id":"0.0-3.0-8.0","time_elapsed":120067,"trial_index":11,"trial_type":"survey-likert","responses":"{\"Q0\":\"3\",\"Q1\":\"2\"}","rt":9088},{"control":false,"questionScores":[17,2390,29,2403,2399,48,18,2404,2405,21],"questionIndicies":[0,29,1,10,17,20,23,26,38,16],"judgmentIndicies":[0,1],"internal_node_id":"0.0-3.0-9.0","time_elapsed":127490,"trial_index":12,"trial_type":"survey-likert","responses":"{\"Q0\":\"1\",\"Q1\":\"2\"}","rt":6420}],"__v":0}
{"_id":{"$oid":"5aa869f20d054e0004f8bda7"},"data":[{"control":false,"questionScores":[22,2406,2402,21,2395,39,26,25,2397,2410],"questionIndicies":[13,6,47,10,4,37,21,33,26,46],"judgmentIndicies":[1,0],"internal_node_id":"0.0-0.0","time_elapsed":2886,"trial_index":0,"trial_type":"survey-multi-choice","responses":"{\"Q0\":\"I consent to participate\"}","rt":2859},{"control":false,"questionScores":[22,2406,2402,21,2395,39,26,25,2397,2410],"questionIndicies":[13,6,47,10,4,37,21,33,26,46],"judgmentIndicies":[1,0],"internal_node_id":"0.0-1.0","time_elapsed":5335,"trial_index":1,"trial_type":"instructions","rt":1446,"view_history":"[{\"page_index\":0,\"viewing_time\":1446}]"},{"control":false,"questionScores":[22,2406,2402,21,2395,39,26,25,2397,2410],"questionIndicies":[13,6,47,10,4,37,21,33,26,46],"judgmentIndicies":[1,0],"internal_node_id":"0.0-2.0","time_elapsed":12466,"trial_index":2,"trial_type":"instructions","rt":6131,"view_history":"[{\"page_index\":0,\"viewing_time\":6131}]"},{"control":false,"questionScores":[22,2406,2402,21,2395,39,26,25,2397,2410],"questionIndicies":[13,6,47,10,4,37,21,33,26,46],"judgmentIndicies":[1,0],"internal_node_id":"0.0-3.0-0.0","time_elapsed":25369,"trial_index":3,"trial_type":"survey-likert","responses":"{\"Q0\":\"2\",\"Q1\":\"3\"}","rt":11891},{"control":false,"questionScores":[22,2406,2402,21,2395,39,26,25,2397,2410],"questionIndicies":[13,6,47,10,4,37,21,33,26,46],"judgmentIndicies":[1,0],"internal_node_id":"0.0-3.0-1.0","time_elapsed":40552,"trial_index":4,"trial_type":"survey-likert","responses":"{\"Q0\":\"2\",\"Q1\":\"3\"}","rt":14177},{"control":false,"questionScores":[22,2406,2402,21,2395,39,26,25,2397,2410],"questionIndicies":[13,6,47,10,4,37,21,33,26,46],"judgmentIndicies":[1,0],"internal_node_id":"0.0-3.0-2.0","time_elapsed":50283,"trial_index":5,"trial_type":"survey-likert","responses":"{\"Q0\":\"1\",\"Q1\":\"1\"}","rt":8725},{"control":false,"questionScores":[22,2406,2402,21,2395,39,26,25,2397,2410],"questionIndicies":[13,6,47,10,4,37,21,33,26,46],"judgmentIndicies":[1,0],"internal_node_id":"0.0-3.0-3.0","time_elapsed":57759,"trial_index":6,"trial_type":"survey-likert","responses":"{\"Q0\":\"1\",\"Q1\":\"2\"}","rt":6470},{"control":false,"questionScores":[22,2406,2402,21,2395,39,26,25,2397,2410],"questionIndicies":[13,6,47,10,4,37,21,33,26,46],"judgmentIndicies":[1,0],"internal_node_id":"0.0-3.0-4.0","time_elapsed":66195,"trial_index":7,"trial_type":"survey-likert","responses":"{\"Q0\":\"1\",\"Q1\":\"1\"}","rt":7431},{"control":false,"questionScores":[22,2406,2402,21,2395,39,26,25,2397,2410],"questionIndicies":[13,6,47,10,4,37,21,33,26,46],"judgmentIndicies":[1,0],"internal_node_id":"0.0-3.0-5.0","time_elapsed":73594,"trial_index":8,"trial_type":"survey-likert","responses":"{\"Q0\":\"1\",\"Q1\":\"1\"}","rt":6392},{"control":false,"questionScores":[22,2406,2402,21,2395,39,26,25,2397,2410],"questionIndicies":[13,6,47,10,4,37,21,33,26,46],"judgmentIndicies":[1,0],"internal_node_id":"0.0-3.0-6.0","time_elapsed":82045,"trial_index":9,"trial_type":"survey-likert","responses":"{\"Q0\":\"2\",\"Q1\":\"3\"}","rt":7447},{"control":false,"questionScores":[22,2406,2402,21,2395,39,26,25,2397,2410],"questionIndicies":[13,6,47,10,4,37,21,33,26,46],"judgmentIndicies":[1,0],"internal_node_id":"0.0-3.0-7.0","time_elapsed":92716,"trial_index":10,"trial_type":"survey-likert","responses":"{\"Q0\":\"0\",\"Q1\":\"0\"}","rt":9664},{"control":false,"questionScores":[22,2406,2402,21,2395,39,26,25,2397,2410],"questionIndicies":[13,6,47,10,4,37,21,33,26,46],"judgmentIndicies":[1,0],"internal_node_id":"0.0-3.0-8.0","time_elapsed":99516,"trial_index":11,"trial_type":"survey-likert","responses":"{\"Q0\":\"1\",\"Q1\":\"1\"}","rt":5796},{"control":false,"questionScores":[22,2406,2402,21,2395,39,26,25,2397,2410],"questionIndicies":[13,6,47,10,4,37,21,33,26,46],"judgmentIndicies":[1,0],"internal_node_id":"0.0-3.0-9.0","time_elapsed":107165,"trial_index":12,"trial_type":"survey-likert","responses":"{\"Q0\":\"1\",\"Q1\":\"1\"}","rt":6644}],"__v":0}
{"_id":{"$oid":"5aa869f40d054e0004f8bda8"},"data":[{"control":false,"questionScores":[2419,28,2405,24,36,15,2400,2406,21,2417],"questionIndicies":[23,8,17,27,7,31,15,14,29,38],"judgmentIndicies":[0,1],"internal_node_id":"0.0-0.0","time_elapsed":4166,"trial_index":0,"trial_type":"survey-multi-choice","responses":"{\"Q0\":\"I consent to participate\"}","rt":4133},{"control":false,"questionScores":[2419,28,2405,24,36,15,2400,2406,21,2417],"questionIndicies":[23,8,17,27,7,31,15,14,29,38],"judgmentIndicies":[0,1],"internal_node_id":"0.0-1.0","time_elapsed":6957,"trial_index":1,"trial_type":"instructions","rt":1789,"view_history":"[{\"page_index\":0,\"viewing_time\":1788}]"},{"control":false,"questionScores":[2419,28,2405,24,36,15,2400,2406,21,2417],"questionIndicies":[23,8,17,27,7,31,15,14,29,38],"judgmentIndicies":[0,1],"internal_node_id":"0.0-2.0","time_elapsed":12068,"trial_index":2,"trial_type":"instructions","rt":4110,"view_history":"[{\"page_index\":0,\"viewing_time\":4109}]"},{"control":false,"questionScores":[2419,28,2405,24,36,15,2400,2406,21,2417],"questionIndicies":[23,8,17,27,7,31,15,14,29,38],"judgmentIndicies":[0,1],"internal_node_id":"0.0-3.0-0.0","time_elapsed":34291,"trial_index":3,"trial_type":"survey-likert","responses":"{\"Q0\":\"1\",\"Q1\":\"0\"}","rt":21210},{"control":false,"questionScores":[2419,28,2405,24,36,15,2400,2406,21,2417],"questionIndicies":[23,8,17,27,7,31,15,14,29,38],"judgmentIndicies":[0,1],"internal_node_id":"0.0-3.0-1.0","time_elapsed":42439,"trial_index":4,"trial_type":"survey-likert","responses":"{\"Q0\":\"2\",\"Q1\":\"3\"}","rt":7140},{"control":false,"questionScores":[2419,28,2405,24,36,15,2400,2406,21,2417],"questionIndicies":[23,8,17,27,7,31,15,14,29,38],"judgmentIndicies":[0,1],"internal_node_id":"0.0-3.0-2.0","time_elapsed":51628,"trial_index":5,"trial_type":"survey-likert","responses":"{\"Q0\":\"5\",\"Q1\":\"6\"}","rt":8177},{"control":false,"questionScores":[2419,28,2405,24,36,15,2400,2406,21,2417],"questionIndicies":[23,8,17,27,7,31,15,14,29,38],"judgmentIndicies":[0,1],"internal_node_id":"0.0-3.0-3.0","time_elapsed":64373,"trial_index":6,"trial_type":"survey-likert","responses":"{\"Q0\":\"4\",\"Q1\":\"2\"}","rt":11734},{"control":false,"questionScores":[2419,28,2405,24,36,15,2400,2406,21,2417],"questionIndicies":[23,8,17,27,7,31,15,14,29,38],"judgmentIndicies":[0,1],"internal_node_id":"0.0-3.0-4.0","time_elapsed":70046,"trial_index":7,"trial_type":"survey-likert","responses":"{\"Q0\":\"6\",\"Q1\":\"6\"}","rt":4664},{"control":false,"questionScores":[2419,28,2405,24,36,15,2400,2406,21,2417],"questionIndicies":[23,8,17,27,7,31,15,14,29,38],"judgmentIndicies":[0,1],"internal_node_id":"0.0-3.0-5.0","time_elapsed":75246,"trial_index":8,"trial_type":"survey-likert","responses":"{\"Q0\":\"4\",\"Q1\":\"2\"}","rt":4194},{"control":false,"questionScores":[2419,28,2405,24,36,15,2400,2406,21,2417],"questionIndicies":[23,8,17,27,7,31,15,14,29,38],"judgmentIndicies":[0,1],"internal_node_id":"0.0-3.0-6.0","time_elapsed":82036,"trial_index":9,"trial_type":"survey-likert","responses":"{\"Q0\":\"5\",\"Q1\":\"5\"}","rt":5782},{"control":false,"questionScores":[2419,28,2405,24,36,15,2400,2406,21,2417],"questionIndicies":[23,8,17,27,7,31,15,14,29,38],"judgmentIndicies":[0,1],"internal_node_id":"0.0-3.0-7.0","time_elapsed":114689,"trial_index":10,"trial_type":"survey-likert","responses":"{\"Q0\":\"5\",\"Q1\":\"5\"}","rt":31642},{"control":false,"questionScores":[2419,28,2405,24,36,15,2400,2406,21,2417],"questionIndicies":[23,8,17,27,7,31,15,14,29,38],"judgmentIndicies":[0,1],"internal_node_id":"0.0-3.0-8.0","time_elapsed":121799,"trial_index":11,"trial_type":"survey-likert","responses":"{\"Q0\":\"6\",\"Q1\":\"5\"}","rt":6102},{"control":false,"questionScores":[2419,28,2405,24,36,15,2400,2406,21,2417],"questionIndicies":[23,8,17,27,7,31,15,14,29,38],"judgmentIndicies":[0,1],"internal_node_id":"0.0-3.0-9.0","time_elapsed":127646,"trial_index":12,"trial_type":"survey-likert","responses":"{\"Q0\":\"1\",\"Q1\":\"2\"}","rt":4838}],"__v":0}
{"_id":{"$oid":"5aa869f80d054e0004f8bda9"},"data":[{"control":false,"questionScores":[2407,2416,2417,2411,24,33,24,27,2397,19],"questionIndicies":[32,29,43,15,25,36,7,5,46,2],"judgmentIndicies":[1,0],"internal_node_id":"0.0-0.0","time_elapsed":3937,"trial_index":0,"trial_type":"survey-multi-choice","responses":"{\"Q0\":\"I consent to participate\"}","rt":3905},{"control":false,"questionScores":[2407,2416,2417,2411,24,33,24,27,2397,19],"questionIndicies":[32,29,43,15,25,36,7,5,46,2],"judgmentIndicies":[1,0],"internal_node_id":"0.0-1.0","time_elapsed":7254,"trial_index":1,"trial_type":"instructions","rt":2315,"view_history":"[{\"page_index\":0,\"viewing_time\":2314}]"},{"control":false,"questionScores":[2407,2416,2417,2411,24,33,24,27,2397,19],"questionIndicies":[32,29,43,15,25,36,7,5,46,2],"judgmentIndicies":[1,0],"internal_node_id":"0.0-2.0","time_elapsed":11308,"trial_index":2,"trial_type":"instructions","rt":3052,"view_history":"[{\"page_index\":0,\"viewing_time\":3052}]"},{"control":false,"questionScores":[2407,2416,2417,2411,24,33,24,27,2397,19],"questionIndicies":[32,29,43,15,25,36,7,5,46,2],"judgmentIndicies":[1,0],"internal_node_id":"0.0-3.0-0.0","time_elapsed":21416,"trial_index":3,"trial_type":"survey-likert","responses":"{\"Q0\":\"3\",\"Q1\":\"2\"}","rt":9101},{"control":false,"questionScores":[2407,2416,2417,2411,24,33,24,27,2397,19],"questionIndicies":[32,29,43,15,25,36,7,5,46,2],"judgmentIndicies":[1,0],"internal_node_id":"0.0-3.0-1.0","time_elapsed":30356,"trial_index":4,"trial_type":"survey-likert","responses":"{\"Q0\":\"2\",\"Q1\":\"2\"}","rt":7932},{"control":false,"questionScores":[2407,2416,2417,2411,24,33,24,27,2397,19],"questionIndicies":[32,29,43,15,25,36,7,5,46,2],"judgmentIndicies":[1,0],"internal_node_id":"0.0-3.0-2.0","time_elapsed":38399,"trial_index":5,"trial_type":"survey-likert","responses":"{\"Q0\":\"5\",\"Q1\":\"4\"}","rt":7034},{"control":false,"questionScores":[2407,2416,2417,2411,24,33,24,27,2397,19],"questionIndicies":[32,29,43,15,25,36,7,5,46,2],"judgmentIndicies":[1,0],"internal_node_id":"0.0-3.0-3.0","time_elapsed":49356,"trial_index":6,"trial_type":"survey-likert","responses":"{\"Q0\":\"3\",\"Q1\":\"1\"}","rt":9948},{"control":false,"questionScores":[2407,2416,2417,2411,24,33,24,27,2397,19],"questionIndicies":[32,29,43,15,25,36,7,5,46,2],"judgmentIndicies":[1,0],"internal_node_id":"0.0-3.0-4.0","time_elapsed":56733,"trial_index":7,"trial_type":"survey-likert","responses":"{\"Q0\":\"4\",\"Q1\":\"3\"}","rt":6373},{"control":false,"questionScores":[2407,2416,2417,2411,24,33,24,27,2397,19],"questionIndicies":[32,29,43,15,25,36,7,5,46,2],"judgmentIndicies":[1,0],"internal_node_id":"0.0-3.0-5.0","time_elapsed":65247,"trial_index":8,"trial_type":"survey-likert","responses":"{\"Q0\":\"4\",\"Q1\":\"2\"}","rt":7506},{"control":false,"questionScores":[2407,2416,2417,2411,24,33,24,27,2397,19],"questionIndicies":[32,29,43,15,25,36,7,5,46,2],"judgmentIndicies":[1,0],"internal_node_id":"0.0-3.0-6.0","time_elapsed":73716,"trial_index":9,"trial_type":"survey-likert","responses":"{\"Q0\":\"3\",\"Q1\":\"1\"}","rt":7464},{"control":false,"questionScores":[2407,2416,2417,2411,24,33,24,27,2397,19],"questionIndicies":[32,29,43,15,25,36,7,5,46,2],"judgmentIndicies":[1,0],"internal_node_id":"0.0-3.0-7.0","time_elapsed":81837,"trial_index":10,"trial_type":"survey-likert","responses":"{\"Q0\":\"2\",\"Q1\":\"4\"}","rt":7114},{"control":false,"questionScores":[2407,2416,2417,2411,24,33,24,27,2397,19],"questionIndicies":[32,29,43,15,25,36,7,5,46,2],"judgmentIndicies":[1,0],"internal_node_id":"0.0-3.0-8.0","time_elapsed":91574,"trial_index":11,"trial_type":"survey-likert","responses":"{\"Q0\":\"3\",\"Q1\":\"3\"}","rt":8733},{"control":false,"questionScores":[2407,2416,2417,2411,24,33,24,27,2397,19],"questionIndicies":[32,29,43,15,25,36,7,5,46,2],"judgmentIndicies":[1,0],"internal_node_id":"0.0-3.0-9.0","time_elapsed":101012,"trial_index":12,"trial_type":"survey-likert","responses":"{\"Q0\":\"4\",\"Q1\":\"4\"}","rt":8436}],"__v":0}
{"_id":{"$oid":"5aa869fb0d054e0004f8bdaa"},"data":[{"control":false,"questionScores":[2404,6,1,2404,19,24,2396,2400,5,2397],"questionIndicies":[35,42,15,29,8,48,9,12,3,16],"judgmentIndicies":[1,0],"internal_node_id":"0.0-0.0","time_elapsed":3602,"trial_index":0,"trial_type":"survey-multi-choice","responses":"{\"Q0\":\"I consent to participate\"}","rt":3586},{"control":false,"questionScores":[2404,6,1,2404,19,24,2396,2400,5,2397],"questionIndicies":[35,42,15,29,8,48,9,12,3,16],"judgmentIndicies":[1,0],"internal_node_id":"0.0-1.0","time_elapsed":8199,"trial_index":1,"trial_type":"instructions","rt":3590,"view_history":"[{\"page_index\":0,\"viewing_time\":3589}]"},{"control":false,"questionScores":[2404,6,1,2404,19,24,2396,2400,5,2397],"questionIndicies":[35,42,15,29,8,48,9,12,3,16],"judgmentIndicies":[1,0],"internal_node_id":"0.0-2.0","time_elapsed":13883,"trial_index":2,"trial_type":"instructions","rt":4684,"view_history":"[{\"page_index\":0,\"viewing_time\":4683}]"},{"control":false,"questionScores":[2404,6,1,2404,19,24,2396,2400,5,2397],"questionIndicies":[35,42,15,29,8,48,9,12,3,16],"judgmentIndicies":[1,0],"internal_node_id":"0.0-3.0-0.0","time_elapsed":28359,"trial_index":3,"trial_type":"survey-likert","responses":"{\"Q0\":\"5\",\"Q1\":\"6\"}","rt":13473},{"control":false,"questionScores":[2404,6,1,2404,19,24,2396,2400,5,2397],"questionIndicies":[35,42,15,29,8,48,9,12,3,16],"judgmentIndicies":[1,0],"internal_node_id":"0.0-3.0-1.0","time_elapsed":42930,"trial_index":4,"trial_type":"survey-likert","responses":"{\"Q0\":\"2\",\"Q1\":\"2\"}","rt":13568},{"control":false,"questionScores":[2404,6,1,2404,19,24,2396,2400,5,2397],"questionIndicies":[35,42,15,29,8,48,9,12,3,16],"judgmentIndicies":[1,0],"internal_node_id":"0.0-3.0-2.0","time_elapsed":53103,"trial_index":5,"trial_type":"survey-likert","responses":"{\"Q0\":\"1\",\"Q1\":\"1\"}","rt":9171},{"control":false,"questionScores":[2404,6,1,2404,19,24,2396,2400,5,2397],"questionIndicies":[35,42,15,29,8,48,9,12,3,16],"judgmentIndicies":[1,0],"internal_node_id":"0.0-3.0-3.0","time_elapsed":65056,"trial_index":6,"trial_type":"survey-likert","responses":"{\"Q0\":\"1\",\"Q1\":\"5\"}","rt":10950},{"control":false,"questionScores":[2404,6,1,2404,19,24,2396,2400,5,2397],"questionIndicies":[35,42,15,29,8,48,9,12,3,16],"judgmentIndicies":[1,0],"internal_node_id":"0.0-3.0-4.0","time_elapsed":83521,"trial_index":7,"trial_type":"survey-likert","responses":"{\"Q0\":\"1\",\"Q1\":\"2\"}","rt":17463},{"control":false,"questionScores":[2404,6,1,2404,19,24,2396,2400,5,2397],"questionIndicies":[35,42,15,29,8,48,9,12,3,16],"judgmentIndicies":[1,0],"internal_node_id":"0.0-3.0-5.0","time_elapsed":96343,"trial_index":8,"trial_type":"survey-likert","responses":"{\"Q0\":\"3\",\"Q1\":\"2\"}","rt":11820},{"control":false,"questionScores":[2404,6,1,2404,19,24,2396,2400,5,2397],"questionIndicies":[35,42,15,29,8,48,9,12,3,16],"judgmentIndicies":[1,0],"internal_node_id":"0.0-3.0-6.0","time_elapsed":110445,"trial_index":9,"trial_type":"survey-likert","responses":"{\"Q0\":\"4\",\"Q1\":\"5\"}","rt":13099},{"control":false,"questionScores":[2404,6,1,2404,19,24,2396,2400,5,2397],"questionIndicies":[35,42,15,29,8,48,9,12,3,16],"judgmentIndicies":[1,0],"internal_node_id":"0.0-3.0-7.0","time_elapsed":125057,"trial_index":10,"trial_type":"survey-likert","responses":"{\"Q0\":\"1\",\"Q1\":\"4\"}","rt":13610},{"control":false,"questionScores":[2404,6,1,2404,19,24,2396,2400,5,2397],"questionIndicies":[35,42,15,29,8,48,9,12,3,16],"judgmentIndicies":[1,0],"internal_node_id":"0.0-3.0-8.0","time_elapsed":134946,"trial_index":11,"trial_type":"survey-likert","responses":"{\"Q0\":\"3\",\"Q1\":\"1\"}","rt":8887},{"control":false,"questionScores":[2404,6,1,2404,19,24,2396,2400,5,2397],"questionIndicies":[35,42,15,29,8,48,9,12,3,16],"judgmentIndicies":[1,0],"internal_node_id":"0.0-3.0-9.0","time_elapsed":143132,"trial_index":12,"trial_type":"survey-likert","responses":"{\"Q0\":\"1\",\"Q1\":\"3\"}","rt":7180}],"__v":0}
{"_id":{"$oid":"5aa86a070d054e0004f8bdab"},"data":[{"control":false,"questionScores":[31,2412,25,2412,2418,25,18,2398,30,2407],"questionIndicies":[41,33,0,8,12,13,25,30,38,34],"judgmentIndicies":[0,1],"internal_node_id":"0.0-0.0","time_elapsed":4052,"trial_index":0,"trial_type":"survey-multi-choice","responses":"{\"Q0\":\"I consent to participate\"}","rt":4007},{"control":false,"questionScores":[31,2412,25,2412,2418,25,18,2398,30,2407],"questionIndicies":[41,33,0,8,12,13,25,30,38,34],"judgmentIndicies":[0,1],"internal_node_id":"0.0-1.0","time_elapsed":6333,"trial_index":1,"trial_type":"instructions","rt":1278,"view_history":"[{\"page_index\":0,\"viewing_time\":1276}]"},{"control":false,"questionScores":[31,2412,25,2412,2418,25,18,2398,30,2407],"questionIndicies":[41,33,0,8,12,13,25,30,38,34],"judgmentIndicies":[0,1],"internal_node_id":"0.0-2.0","time_elapsed":10248,"trial_index":2,"trial_type":"instructions","rt":2913,"view_history":"[{\"page_index\":0,\"viewing_time\":2912}]"},{"control":false,"questionScores":[31,2412,25,2412,2418,25,18,2398,30,2407],"questionIndicies":[41,33,0,8,12,13,25,30,38,34],"judgmentIndicies":[0,1],"internal_node_id":"0.0-3.0-0.0","time_elapsed":17885,"trial_index":3,"trial_type":"survey-likert","responses":"{\"Q0\":\"1\",\"Q1\":\"1\"}","rt":6622},{"control":false,"questionScores":[31,2412,25,2412,2418,25,18,2398,30,2407],"questionIndicies":[41,33,0,8,12,13,25,30,38,34],"judgmentIndicies":[0,1],"internal_node_id":"0.0-3.0-1.0","time_elapsed":27412,"trial_index":4,"trial_type":"survey-likert","responses":"{\"Q0\":\"6\",\"Q1\":\"4\"}","rt":8511},{"control":false,"questionScores":[31,2412,25,2412,2418,25,18,2398,30,2407],"questionIndicies":[41,33,0,8,12,13,25,30,38,34],"judgmentIndicies":[0,1],"internal_node_id":"0.0-3.0-2.0","time_elapsed":33792,"trial_index":5,"trial_type":"survey-likert","responses":"{\"Q0\":\"1\",\"Q1\":\"4\"}","rt":5358},{"control":false,"questionScores":[31,2412,25,2412,2418,25,18,2398,30,2407],"questionIndicies":[41,33,0,8,12,13,25,30,38,34],"judgmentIndicies":[0,1],"internal_node_id":"0.0-3.0-3.0","time_elapsed":40081,"trial_index":6,"trial_type":"survey-likert","responses":"{\"Q0\":\"6\",\"Q1\":\"6\"}","rt":5268},{"control":false,"questionScores":[31,2412,25,2412,2418,25,18,2398,30,2407],"questionIndicies":[41,33,0,8,12,13,25,30,38,34],"judgmentIndicies":[0,1],"internal_node_id":"0.0-3.0-4.0","time_elapsed":45849,"trial_index":7,"trial_type":"survey-likert","responses":"{\"Q0\":\"1\",\"Q1\":\"5\"}","rt":4756},{"control":false,"questionScores":[31,2412,25,2412,2418,25,18,2398,30,2407],"questionIndicies":[41,33,0,8,12,13,25,30,38,34],"judgmentIndicies":[0,1],"internal_node_id":"0.0-3.0-5.0","time_elapsed":52102,"trial_index":8,"trial_type":"survey-likert","responses":"{\"Q0\":\"1\",\"Q1\":\"2\"}","rt":5236},{"control":false,"questionScores":[31,2412,25,2412,2418,25,18,2398,30,2407],"questionIndicies":[41,33,0,8,12,13,25,30,38,34],"judgmentIndicies":[0,1],"internal_node_id":"0.0-3.0-6.0","time_elapsed":55977,"trial_index":9,"trial_type":"survey-likert","responses":"{\"Q0\":\"1\",\"Q1\":\"6\"}","rt":2861},{"control":false,"questionScores":[31,2412,25,2412,2418,25,18,2398,30,2407],"questionIndicies":[41,33,0,8,12,13,25,30,38,34],"judgmentIndicies":[0,1],"internal_node_id":"0.0-3.0-7.0","time_elapsed":60470,"trial_index":10,"trial_type":"survey-likert","responses":"{\"Q0\":\"6\",\"Q1\":\"6\"}","rt":3473},{"control":false,"questionScores":[31,2412,25,2412,2418,25,18,2398,30,2407],"questionIndicies":[41,33,0,8,12,13,25,30,38,34],"judgmentIndicies":[0,1],"internal_node_id":"0.0-3.0-8.0","time_elapsed":64610,"trial_index":11,"trial_type":"survey-likert","responses":"{\"Q0\":\"6\",\"Q1\":\"6\"}","rt":3117},{"control":false,"questionScores":[31,2412,25,2412,2418,25,18,2398,30,2407],"questionIndicies":[41,33,0,8,12,13,25,30,38,34],"judgmentIndicies":[0,1],"internal_node_id":"0.0-3.0-9.0","time_elapsed":70083,"trial_index":12,"trial_type":"survey-likert","responses":"{\"Q0\":\"3\",\"Q1\":\"6\"}","rt":4454}],"__v":0}
{"_id":{"$oid":"5aa86a0c0d054e0004f8bdac"},"data":[{"control":false,"questionScores":[2409,2401,2396,9,7,28,2409,16,33,2400],"questionIndicies":[4,22,5,45,20,7,44,31,8,15],"judgmentIndicies":[1,0],"internal_node_id":"0.0-0.0","time_elapsed":25234,"trial_index":0,"trial_type":"survey-multi-choice","responses":"{\"Q0\":\"I consent to participate\"}","rt":25224},{"control":false,"questionScores":[2409,2401,2396,9,7,28,2409,16,33,2400],"questionIndicies":[4,22,5,45,20,7,44,31,8,15],"judgmentIndicies":[1,0],"internal_node_id":"0.0-1.0","time_elapsed":30132,"trial_index":1,"trial_type":"instructions","rt":3897,"view_history":"[{\"page_index\":0,\"viewing_time\":3896}]"},{"control":false,"questionScores":[2409,2401,2396,9,7,28,2409,16,33,2400],"questionIndicies":[4,22,5,45,20,7,44,31,8,15],"judgmentIndicies":[1,0],"internal_node_id":"0.0-2.0","time_elapsed":35481,"trial_index":2,"trial_type":"instructions","rt":4349,"view_history":"[{\"page_index\":0,\"viewing_time\":4349}]"},{"control":false,"questionScores":[2409,2401,2396,9,7,28,2409,16,33,2400],"questionIndicies":[4,22,5,45,20,7,44,31,8,15],"judgmentIndicies":[1,0],"internal_node_id":"0.0-3.0-0.0","time_elapsed":52400,"trial_index":3,"trial_type":"survey-likert","responses":"{\"Q0\":\"0\",\"Q1\":\"1\"}","rt":15914},{"control":false,"questionScores":[2409,2401,2396,9,7,28,2409,16,33,2400],"questionIndicies":[4,22,5,45,20,7,44,31,8,15],"judgmentIndicies":[1,0],"internal_node_id":"0.0-3.0-1.0","time_elapsed":69379,"trial_index":4,"trial_type":"survey-likert","responses":"{\"Q0\":\"1\",\"Q1\":\"5\"}","rt":15977},{"control":false,"questionScores":[2409,2401,2396,9,7,28,2409,16,33,2400],"questionIndicies":[4,22,5,45,20,7,44,31,8,15],"judgmentIndicies":[1,0],"internal_node_id":"0.0-3.0-2.0","time_elapsed":77968,"trial_index":5,"trial_type":"survey-likert","responses":"{\"Q0\":\"1\",\"Q1\":\"0\"}","rt":7584},{"control":false,"questionScores":[2409,2401,2396,9,7,28,2409,16,33,2400],"questionIndicies":[4,22,5,45,20,7,44,31,8,15],"judgmentIndicies":[1,0],"internal_node_id":"0.0-3.0-3.0","time_elapsed":89416,"trial_index":6,"trial_type":"survey-likert","responses":"{\"Q0\":\"2\",\"Q1\":\"0\"}","rt":10445},{"control":false,"questionScores":[2409,2401,2396,9,7,28,2409,16,33,2400],"questionIndicies":[4,22,5,45,20,7,44,31,8,15],"judgmentIndicies":[1,0],"internal_node_id":"0.0-3.0-4.0","time_elapsed":100959,"trial_index":7,"trial_type":"survey-likert","responses":"{\"Q0\":\"4\",\"Q1\":\"6\"}","rt":10540},{"control":false,"questionScores":[2409,2401,2396,9,7,28,2409,16,33,2400],"questionIndicies":[4,22,5,45,20,7,44,31,8,15],"judgmentIndicies":[1,0],"internal_node_id":"0.0-3.0-5.0","time_elapsed":109070,"trial_index":8,"trial_type":"survey-likert","responses":"{\"Q0\":\"5\",\"Q1\":\"3\"}","rt":7106},{"control":false,"questionScores":[2409,2401,2396,9,7,28,2409,16,33,2400],"questionIndicies":[4,22,5,45,20,7,44,31,8,15],"judgmentIndicies":[1,0],"internal_node_id":"0.0-3.0-6.0","time_elapsed":117603,"trial_index":9,"trial_type":"survey-likert","responses":"{\"Q0\":\"4\",\"Q1\":\"6\"}","rt":7529},{"control":false,"questionScores":[2409,2401,2396,9,7,28,2409,16,33,2400],"questionIndicies":[4,22,5,45,20,7,44,31,8,15],"judgmentIndicies":[1,0],"internal_node_id":"0.0-3.0-7.0","time_elapsed":124516,"trial_index":10,"trial_type":"survey-likert","responses":"{\"Q0\":\"1\",\"Q1\":\"2\"}","rt":5909},{"control":false,"questionScores":[2409,2401,2396,9,7,28,2409,16,33,2400],"questionIndicies":[4,22,5,45,20,7,44,31,8,15],"judgmentIndicies":[1,0],"internal_node_id":"0.0-3.0-8.0","time_elapsed":134280,"trial_index":11,"trial_type":"survey-likert","responses":"{\"Q0\":\"0\",\"Q1\":\"0\"}","rt":8761},{"control":false,"questionScores":[2409,2401,2396,9,7,28,2409,16,33,2400],"questionIndicies":[4,22,5,45,20,7,44,31,8,15],"judgmentIndicies":[1,0],"internal_node_id":"0.0-3.0-9.0","time_elapsed":143249,"trial_index":12,"trial_type":"survey-likert","responses":"{\"Q0\":\"4\",\"Q1\":\"0\"}","rt":7965}],"__v":0}
{"_id":{"$oid":"5aa86a190d054e0004f8bdad"},"data":[{"control":false,"questionScores":[19,26,2399,2419,2419,34,2410,27,23,2408],"questionIndicies":[37,8,35,4,0,20,46,13,30,24],"judgmentIndicies":[1,0],"internal_node_id":"0.0-0.0","time_elapsed":5256,"trial_index":0,"trial_type":"survey-multi-choice","responses":"{\"Q0\":\"I consent to participate\"}","rt":5245},{"control":false,"questionScores":[19,26,2399,2419,2419,34,2410,27,23,2408],"questionIndicies":[37,8,35,4,0,20,46,13,30,24],"judgmentIndicies":[1,0],"internal_node_id":"0.0-1.0","time_elapsed":11690,"trial_index":1,"trial_type":"instructions","rt":5432,"view_history":"[{\"page_index\":0,\"viewing_time\":5430}]"},{"control":false,"questionScores":[19,26,2399,2419,2419,34,2410,27,23,2408],"questionIndicies":[37,8,35,4,0,20,46,13,30,24],"judgmentIndicies":[1,0],"internal_node_id":"0.0-2.0","time_elapsed":18380,"trial_index":2,"trial_type":"instructions","rt":5689,"view_history":"[{\"page_index\":0,\"viewing_time\":5689}]"},{"control":false,"questionScores":[19,26,2399,2419,2419,34,2410,27,23,2408],"questionIndicies":[37,8,35,4,0,20,46,13,30,24],"judgmentIndicies":[1,0],"internal_node_id":"0.0-3.0-0.0","time_elapsed":31129,"trial_index":3,"trial_type":"survey-likert","responses":"{\"Q0\":\"2\",\"Q1\":\"4\"}","rt":11742},{"control":false,"questionScores":[19,26,2399,2419,2419,34,2410,27,23,2408],"questionIndicies":[37,8,35,4,0,20,46,13,30,24],"judgmentIndicies":[1,0],"internal_node_id":"0.0-3.0-1.0","time_elapsed":50478,"trial_index":4,"trial_type":"survey-likert","responses":"{\"Q0\":\"0\",\"Q1\":\"0\"}","rt":18345},{"control":false,"questionScores":[19,26,2399,2419,2419,34,2410,27,23,2408],"questionIndicies":[37,8,35,4,0,20,46,13,30,24],"judgmentIndicies":[1,0],"internal_node_id":"0.0-3.0-2.0","time_elapsed":59805,"trial_index":5,"trial_type":"survey-likert","responses":"{\"Q0\":\"1\",\"Q1\":\"2\"}","rt":8319},{"control":false,"questionScores":[19,26,2399,2419,2419,34,2410,27,23,2408],"questionIndicies":[37,8,35,4,0,20,46,13,30,24],"judgmentIndicies":[1,0],"internal_node_id":"0.0-3.0-3.0","time_elapsed":68524,"trial_index":6,"trial_type":"survey-likert","responses":"{\"Q0\":\"5\",\"Q1\":\"2\"}","rt":7712},{"control":false,"questionScores":[19,26,2399,2419,2419,34,2410,27,23,2408],"questionIndicies":[37,8,35,4,0,20,46,13,30,24],"judgmentIndicies":[1,0],"internal_node_id":"0.0-3.0-4.0","time_elapsed":86874,"trial_index":7,"trial_type":"survey-likert","responses":"{\"Q0\":\"6\",\"Q1\":\"4\"}","rt":17345},{"control":false,"questionScores":[19,26,2399,2419,2419,34,2410,27,23,2408],"questionIndicies":[37,8,35,4,0,20,46,13,30,24],"judgmentIndicies":[1,0],"internal_node_id":"0.0-3.0-5.0","time_elapsed":97141,"trial_index":8,"trial_type":"survey-likert","responses":"{\"Q0\":\"1\",\"Q1\":\"3\"}","rt":9260},{"control":false,"questionScores":[19,26,2399,2419,2419,34,2410,27,23,2408],"questionIndicies":[37,8,35,4,0,20,46,13,30,24],"judgmentIndicies":[1,0],"internal_node_id":"0.0-3.0-6.0","time_elapsed":127998,"trial_index":9,"trial_type":"survey-likert","responses":"{\"Q0\":\"0\",\"Q1\":\"1\"}","rt":29849},{"control":false,"questionScores":[19,26,2399,2419,2419,34,2410,27,23,2408],"questionIndicies":[37,8,35,4,0,20,46,13,30,24],"judgmentIndicies":[1,0],"internal_node_id":"0.0-3.0-7.0","time_elapsed":141432,"trial_index":10,"trial_type":"survey-likert","responses":"{\"Q0\":\"3\",\"Q1\":\"5\"}","rt":12427},{"control":false,"questionScores":[19,26,2399,2419,2419,34,2410,27,23,2408],"questionIndicies":[37,8,35,4,0,20,46,13,30,24],"judgmentIndicies":[1,0],"internal_node_id":"0.0-3.0-8.0","time_elapsed":150579,"trial_index":11,"trial_type":"survey-likert","responses":"{\"Q0\":\"4\",\"Q1\":\"4\"}","rt":8144},{"control":false,"questionScores":[19,26,2399,2419,2419,34,2410,27,23,2408],"questionIndicies":[37,8,35,4,0,20,46,13,30,24],"judgmentIndicies":[1,0],"internal_node_id":"0.0-3.0-9.0","time_elapsed":157485,"trial_index":12,"trial_type":"survey-likert","responses":"{\"Q0\":\"0\",\"Q1\":\"0\"}","rt":5902}],"__v":0}
{"_id":{"$oid":"5aa86a310d054e0004f8bdae"},"data":[{"control":false,"questionScores":[2411,32,2383,29,2398,2398,2407,12,17,20],"questionIndicies":[19,44,45,20,16,40,8,18,49,12],"judgmentIndicies":[0,1],"internal_node_id":"0.0-0.0","time_elapsed":7130,"trial_index":0,"trial_type":"survey-multi-choice","responses":"{\"Q0\":\"I consent to participate\"}","rt":7115},{"control":false,"questionScores":[2411,32,2383,29,2398,2398,2407,12,17,20],"questionIndicies":[19,44,45,20,16,40,8,18,49,12],"judgmentIndicies":[0,1],"internal_node_id":"0.0-1.0","time_elapsed":11285,"trial_index":1,"trial_type":"instructions","rt":3145,"view_history":"[{\"page_index\":0,\"viewing_time\":3143}]"},{"control":false,"questionScores":[2411,32,2383,29,2398,2398,2407,12,17,20],"questionIndicies":[19,44,45,20,16,40,8,18,49,12],"judgmentIndicies":[0,1],"internal_node_id":"0.0-2.0","time_elapsed":17974,"trial_index":2,"trial_type":"instructions","rt":5690,"view_history":"[{\"page_index\":0,\"viewing_time\":5690}]"},{"control":false,"questionScores":[2411,32,2383,29,2398,2398,2407,12,17,20],"questionIndicies":[19,44,45,20,16,40,8,18,49,12],"judgmentIndicies":[0,1],"internal_node_id":"0.0-3.0-0.0","time_elapsed":47761,"trial_index":3,"trial_type":"survey-likert","responses":"{\"Q0\":\"0\",\"Q1\":\"0\"}","rt":28781},{"control":false,"questionScores":[2411,32,2383,29,2398,2398,2407,12,17,20],"questionIndicies":[19,44,45,20,16,40,8,18,49,12],"judgmentIndicies":[0,1],"internal_node_id":"0.0-3.0-1.0","time_elapsed":65688,"trial_index":4,"trial_type":"survey-likert","responses":"{\"Q0\":\"2\",\"Q1\":\"3\"}","rt":16925},{"control":false,"questionScores":[2411,32,2383,29,2398,2398,2407,12,17,20],"questionIndicies":[19,44,45,20,16,40,8,18,49,12],"judgmentIndicies":[0,1],"internal_node_id":"0.0-3.0-2.0","time_elapsed":82102,"trial_index":5,"trial_type":"survey-likert","responses":"{\"Q0\":\"0\",\"Q1\":\"1\"}","rt":15409},{"control":false,"questionScores":[2411,32,2383,29,2398,2398,2407,12,17,20],"questionIndicies":[19,44,45,20,16,40,8,18,49,12],"judgmentIndicies":[0,1],"internal_node_id":"0.0-3.0-3.0","time_elapsed":122806,"trial_index":6,"trial_type":"survey-likert","responses":"{\"Q0\":\"4\",\"Q1\":\"4\"}","rt":39703},{"control":false,"questionScores":[2411,32,2383,29,2398,2398,2407,12,17,20],"questionIndicies":[19,44,45,20,16,40,8,18,49,12],"judgmentIndicies":[0,1],"internal_node_id":"0.0-3.0-4.0","time_elapsed":132273,"trial_index":7,"trial_type":"survey-likert","responses":"{\"Q0\":\"0\",\"Q1\":\"1\"}","rt":8462},{"control":false,"questionScores":[2411,32,2383,29,2398,2398,2407,12,17,20],"questionIndicies":[19,44,45,20,16,40,8,18,49,12],"judgmentIndicies":[0,1],"internal_node_id":"0.0-3.0-5.0","time_elapsed":146335,"trial_index":8,"trial_type":"survey-likert","responses":"{\"Q0\":\"1\",\"Q1\":\"2\"}","rt":13056},{"control":false,"questionScores":[2411,32,2383,29,2398,2398,2407,12,17,20],"questionIndicies":[19,44,45,20,16,40,8,18,49,12],"judgmentIndicies":[0,1],"internal_node_id":"0.0-3.0-6.0","time_elapsed":157037,"trial_index":9,"trial_type":"survey-likert","responses":"{\"Q0\":\"0\",\"Q1\":\"1\"}","rt":9702},{"control":false,"questionScores":[2411,32,2383,29,2398,2398,2407,12,17,20],"questionIndicies":[19,44,45,20,16,40,8,18,49,12],"judgmentIndicies":[0,1],"internal_node_id":"0.0-3.0-7.0","time_elapsed":168511,"trial_index":10,"trial_type":"survey-likert","responses":"{\"Q0\":\"0\",\"Q1\":\"1\"}","rt":10472},{"control":false,"questionScores":[2411,32,2383,29,2398,2398,2407,12,17,20],"questionIndicies":[19,44,45,20,16,40,8,18,49,12],"judgmentIndicies":[0,1],"internal_node_id":"0.0-3.0-8.0","time_elapsed":183686,"trial_index":11,"trial_type":"survey-likert","responses":"{\"Q0\":\"0\",\"Q1\":\"1\"}","rt":14173},{"control":false,"questionScores":[2411,32,2383,29,2398,2398,2407,12,17,20],"questionIndicies":[19,44,45,20,16,40,8,18,49,12],"judgmentIndicies":[0,1],"internal_node_id":"0.0-3.0-9.0","time_elapsed":196588,"trial_index":12,"trial_type":"survey-likert","responses":"{\"Q0\":\"1\",\"Q1\":\"3\"}","rt":11898}],"__v":0}
{"_id":{"$oid":"5aa86a320d054e0004f8bdaf"},"data":[{"control":false,"questionScores":[29,2400,23,2405,2393,42,2399,2416,52,43],"questionIndicies":[13,4,6,3,5,20,38,34,29,17],"judgmentIndicies":[0,1],"internal_node_id":"0.0-0.0","time_elapsed":9623,"trial_index":0,"trial_type":"survey-multi-choice","responses":"{\"Q0\":\"I consent to participate\"}","rt":9589},{"control":false,"questionScores":[29,2400,23,2405,2393,42,2399,2416,52,43],"questionIndicies":[13,4,6,3,5,20,38,34,29,17],"judgmentIndicies":[0,1],"internal_node_id":"0.0-1.0","time_elapsed":15124,"trial_index":1,"trial_type":"instructions","rt":4497,"view_history":"[{\"page_index\":0,\"viewing_time\":4496}]"},{"control":false,"questionScores":[29,2400,23,2405,2393,42,2399,2416,52,43],"questionIndicies":[13,4,6,3,5,20,38,34,29,17],"judgmentIndicies":[0,1],"internal_node_id":"0.0-2.0","time_elapsed":20430,"trial_index":2,"trial_type":"instructions","rt":4301,"view_history":"[{\"page_index\":0,\"viewing_time\":4300}]"},{"control":false,"questionScores":[29,2400,23,2405,2393,42,2399,2416,52,43],"questionIndicies":[13,4,6,3,5,20,38,34,29,17],"judgmentIndicies":[0,1],"internal_node_id":"0.0-3.0-0.0","time_elapsed":40991,"trial_index":3,"trial_type":"survey-likert","responses":"{\"Q0\":\"4\",\"Q1\":\"3\"}","rt":19534},{"control":false,"questionScores":[29,2400,23,2405,2393,42,2399,2416,52,43],"questionIndicies":[13,4,6,3,5,20,38,34,29,17],"judgmentIndicies":[0,1],"internal_node_id":"0.0-3.0-1.0","time_elapsed":54546,"trial_index":4,"trial_type":"survey-likert","responses":"{\"Q0\":\"1\",\"Q1\":\"1\"}","rt":12543},{"control":false,"questionScores":[29,2400,23,2405,2393,42,2399,2416,52,43],"questionIndicies":[13,4,6,3,5,20,38,34,29,17],"judgmentIndicies":[0,1],"internal_node_id":"0.0-3.0-2.0","time_elapsed":63567,"trial_index":5,"trial_type":"survey-likert","responses":"{\"Q0\":\"4\",\"Q1\":\"3\"}","rt":8009},{"control":false,"questionScores":[29,2400,23,2405,2393,42,2399,2416,52,43],"questionIndicies":[13,4,6,3,5,20,38,34,29,17],"judgmentIndicies":[0,1],"internal_node_id":"0.0-3.0-3.0","time_elapsed":72890,"trial_index":6,"trial_type":"survey-likert","responses":"{\"Q0\":\"5\",\"Q1\":\"4\"}","rt":8314},{"control":false,"questionScores":[29,2400,23,2405,2393,42,2399,2416,52,43],"questionIndicies":[13,4,6,3,5,20,38,34,29,17],"judgmentIndicies":[0,1],"internal_node_id":"0.0-3.0-4.0","time_elapsed":82064,"trial_index":7,"trial_type":"survey-likert","responses":"{\"Q0\":\"4\",\"Q1\":\"3\"}","rt":8163},{"control":false,"questionScores":[29,2400,23,2405,2393,42,2399,2416,52,43],"questionIndicies":[13,4,6,3,5,20,38,34,29,17],"judgmentIndicies":[0,1],"internal_node_id":"0.0-3.0-5.0","time_elapsed":106262,"trial_index":8,"trial_type":"survey-likert","responses":"{\"Q0\":\"3\",\"Q1\":\"3\"}","rt":23187},{"control":false,"questionScores":[29,2400,23,2405,2393,42,2399,2416,52,43],"questionIndicies":[13,4,6,3,5,20,38,34,29,17],"judgmentIndicies":[0,1],"internal_node_id":"0.0-3.0-6.0","time_elapsed":129294,"trial_index":9,"trial_type":"survey-likert","responses":"{\"Q0\":\"4\",\"Q1\":\"3\"}","rt":22022},{"control":false,"questionScores":[29,2400,23,2405,2393,42,2399,2416,52,43],"questionIndicies":[13,4,6,3,5,20,38,34,29,17],"judgmentIndicies":[0,1],"internal_node_id":"0.0-3.0-7.0","time_elapsed":149672,"trial_index":10,"trial_type":"survey-likert","responses":"{\"Q0\":\"4\",\"Q1\":\"3\"}","rt":19366},{"control":false,"questionScores":[29,2400,23,2405,2393,42,2399,2416,52,43],"questionIndicies":[13,4,6,3,5,20,38,34,29,17],"judgmentIndicies":[0,1],"internal_node_id":"0.0-3.0-8.0","time_elapsed":164257,"trial_index":11,"trial_type":"survey-likert","responses":"{\"Q0\":\"1\",\"Q1\":\"1\"}","rt":13576},{"control":false,"questionScores":[29,2400,23,2405,2393,42,2399,2416,52,43],"questionIndicies":[13,4,6,3,5,20,38,34,29,17],"judgmentIndicies":[0,1],"internal_node_id":"0.0-3.0-9.0","time_elapsed":184703,"trial_index":12,"trial_type":"survey-likert","responses":"{\"Q0\":\"2\",\"Q1\":\"2\"}","rt":19435}],"__v":0}
{"_id":{"$oid":"5aa86a370d054e0004f8bdb0"},"data":[{"control":false,"questionScores":[2393,2418,26,2423,19,37,2406,21,2402,12],"questionIndicies":[18,10,15,6,38,7,33,26,13,23],"judgmentIndicies":[1,0],"internal_node_id":"0.0-0.0","time_elapsed":15064,"trial_index":0,"trial_type":"survey-multi-choice","responses":"{\"Q0\":\"I consent to participate\"}","rt":15053},{"control":false,"questionScores":[2393,2418,26,2423,19,37,2406,21,2402,12],"questionIndicies":[18,10,15,6,38,7,33,26,13,23],"judgmentIndicies":[1,0],"internal_node_id":"0.0-1.0","time_elapsed":17654,"trial_index":1,"trial_type":"instructions","rt":1589,"view_history":"[{\"page_index\":0,\"viewing_time\":1589}]"},{"control":false,"questionScores":[2393,2418,26,2423,19,37,2406,21,2402,12],"questionIndicies":[18,10,15,6,38,7,33,26,13,23],"judgmentIndicies":[1,0],"internal_node_id":"0.0-2.0","time_elapsed":25365,"trial_index":2,"trial_type":"instructions","rt":6710,"view_history":"[{\"page_index\":0,\"viewing_time\":6710}]"},{"control":false,"questionScores":[2393,2418,26,2423,19,37,2406,21,2402,12],"questionIndicies":[18,10,15,6,38,7,33,26,13,23],"judgmentIndicies":[1,0],"internal_node_id":"0.0-3.0-0.0","time_elapsed":38559,"trial_index":3,"trial_type":"survey-likert","responses":"{\"Q0\":\"1\",\"Q1\":\"5\"}","rt":12188},{"control":false,"questionScores":[2393,2418,26,2423,19,37,2406,21,2402,12],"questionIndicies":[18,10,15,6,38,7,33,26,13,23],"judgmentIndicies":[1,0],"internal_node_id":"0.0-3.0-1.0","time_elapsed":53350,"trial_index":4,"trial_type":"survey-likert","responses":"{\"Q0\":\"2\",\"Q1\":\"1\"}","rt":13785},{"control":false,"questionScores":[2393,2418,26,2423,19,37,2406,21,2402,12],"questionIndicies":[18,10,15,6,38,7,33,26,13,23],"judgmentIndicies":[1,0],"internal_node_id":"0.0-3.0-2.0","time_elapsed":110790,"trial_index":5,"trial_type":"survey-likert","responses":"{\"Q0\":\"5\",\"Q1\":\"4\"}","rt":56438},{"control":false,"questionScores":[2393,2418,26,2423,19,37,2406,21,2402,12],"questionIndicies":[18,10,15,6,38,7,33,26,13,23],"judgmentIndicies":[1,0],"internal_node_id":"0.0-3.0-3.0","time_elapsed":122535,"trial_index":6,"trial_type":"survey-likert","responses":"{\"Q0\":\"1\",\"Q1\":\"4\"}","rt":10741},{"control":false,"questionScores":[2393,2418,26,2423,19,37,2406,21,2402,12],"questionIndicies":[18,10,15,6,38,7,33,26,13,23],"judgmentIndicies":[1,0],"internal_node_id":"0.0-3.0-4.0","time_elapsed":142935,"trial_index":7,"trial_type":"survey-likert","responses":"{\"Q0\":\"6\",\"Q1\":\"2\"}","rt":19396},{"control":false,"questionScores":[2393,2418,26,2423,19,37,2406,21,2402,12],"questionIndicies":[18,10,15,6,38,7,33,26,13,23],"judgmentIndicies":[1,0],"internal_node_id":"0.0-3.0-5.0","time_elapsed":149823,"trial_index":8,"trial_type":"survey-likert","responses":"{\"Q0\":\"4\",\"Q1\":\"5\"}","rt":5884},{"control":false,"questionScores":[2393,2418,26,2423,19,37,2406,21,2402,12],"questionIndicies":[18,10,15,6,38,7,33,26,13,23],"judgmentIndicies":[1,0],"internal_node_id":"0.0-3.0-6.0","time_elapsed":167790,"trial_index":9,"trial_type":"survey-likert","responses":"{\"Q0\":\"1\",\"Q1\":\"6\"}","rt":16962},{"control":false,"questionScores":[2393,2418,26,2423,19,37,2406,21,2402,12],"questionIndicies":[18,10,15,6,38,7,33,26,13,23],"judgmentIndicies":[1,0],"internal_node_id":"0.0-3.0-7.0","time_elapsed":178246,"trial_index":10,"trial_type":"survey-likert","responses":"{\"Q0\":\"6\",\"Q1\":\"1\"}","rt":9453},{"control":false,"questionScores":[2393,2418,26,2423,19,37,2406,21,2402,12],"questionIndicies":[18,10,15,6,38,7,33,26,13,23],"judgmentIndicies":[1,0],"internal_node_id":"0.0-3.0-8.0","time_elapsed":186831,"trial_index":11,"trial_type":"survey-likert","responses":"{\"Q0\":\"1\",\"Q1\":\"2\"}","rt":7576},{"control":false,"questionScores":[2393,2418,26,2423,19,37,2406,21,2402,12],"questionIndicies":[18,10,15,6,38,7,33,26,13,23],"judgmentIndicies":[1,0],"internal_node_id":"0.0-3.0-9.0","time_elapsed":197102,"trial_index":12,"trial_type":"survey-likert","responses":"{\"Q0\":\"6\",\"Q1\":\"4\"}","rt":9267}],"__v":0}
{"_id":{"$oid":"5aa86a400d054e0004f8bdb1"},"data":[{"control":false,"questionScores":[2398,30,2397,21,2397,2397,13,31,2417,25],"questionIndicies":[2,11,25,9,24,19,10,13,14,5],"judgmentIndicies":[1,0],"internal_node_id":"0.0-0.0","time_elapsed":7805,"trial_index":0,"trial_type":"survey-multi-choice","responses":"{\"Q0\":\"I consent to participate\"}","rt":7795},{"control":false,"questionScores":[2398,30,2397,21,2397,2397,13,31,2417,25],"questionIndicies":[2,11,25,9,24,19,10,13,14,5],"judgmentIndicies":[1,0],"internal_node_id":"0.0-1.0","time_elapsed":10668,"trial_index":1,"trial_type":"instructions","rt":1862,"view_history":"[{\"page_index\":0,\"viewing_time\":1861}]"},{"control":false,"questionScores":[2398,30,2397,21,2397,2397,13,31,2417,25],"questionIndicies":[2,11,25,9,24,19,10,13,14,5],"judgmentIndicies":[1,0],"internal_node_id":"0.0-2.0","time_elapsed":14490,"trial_index":2,"trial_type":"instructions","rt":2820,"view_history":"[{\"page_index\":0,\"viewing_time\":2820}]"},{"control":false,"questionScores":[2398,30,2397,21,2397,2397,13,31,2417,25],"questionIndicies":[2,11,25,9,24,19,10,13,14,5],"judgmentIndicies":[1,0],"internal_node_id":"0.0-3.0-0.0","time_elapsed":29500,"trial_index":3,"trial_type":"survey-likert","responses":"{\"Q0\":\"1\",\"Q1\":\"1\"}","rt":14002},{"control":false,"questionScores":[2398,30,2397,21,2397,2397,13,31,2417,25],"questionIndicies":[2,11,25,9,24,19,10,13,14,5],"judgmentIndicies":[1,0],"internal_node_id":"0.0-3.0-1.0","time_elapsed":38731,"trial_index":4,"trial_type":"survey-likert","responses":"{\"Q0\":\"0\",\"Q1\":\"0\"}","rt":8226},{"control":false,"questionScores":[2398,30,2397,21,2397,2397,13,31,2417,25],"questionIndicies":[2,11,25,9,24,19,10,13,14,5],"judgmentIndicies":[1,0],"internal_node_id":"0.0-3.0-2.0","time_elapsed":45819,"trial_index":5,"trial_type":"survey-likert","responses":"{\"Q0\":\"0\",\"Q1\":\"0\"}","rt":6083},{"control":false,"questionScores":[2398,30,2397,21,2397,2397,13,31,2417,25],"questionIndicies":[2,11,25,9,24,19,10,13,14,5],"judgmentIndicies":[1,0],"internal_node_id":"0.0-3.0-3.0","time_elapsed":54571,"trial_index":6,"trial_type":"survey-likert","responses":"{\"Q0\":\"5\",\"Q1\":\"4\"}","rt":7748},{"control":false,"questionScores":[2398,30,2397,21,2397,2397,13,31,2417,25],"questionIndicies":[2,11,25,9,24,19,10,13,14,5],"judgmentIndicies":[1,0],"internal_node_id":"0.0-3.0-4.0","time_elapsed":63139,"trial_index":7,"trial_type":"survey-likert","responses":"{\"Q0\":\"5\",\"Q1\":\"5\"}","rt":7562},{"control":false,"questionScores":[2398,30,2397,21,2397,2397,13,31,2417,25],"questionIndicies":[2,11,25,9,24,19,10,13,14,5],"judgmentIndicies":[1,0],"internal_node_id":"0.0-3.0-5.0","time_elapsed":72723,"trial_index":8,"trial_type":"survey-likert","responses":"{\"Q0\":\"0\",\"Q1\":\"0\"}","rt":8579},{"control":false,"questionScores":[2398,30,2397,21,2397,2397,13,31,2417,25],"questionIndicies":[2,11,25,9,24,19,10,13,14,5],"judgmentIndicies":[1,0],"internal_node_id":"0.0-3.0-6.0","time_elapsed":78555,"trial_index":9,"trial_type":"survey-likert","responses":"{\"Q0\":\"0\",\"Q1\":\"0\"}","rt":4825},{"control":false,"questionScores":[2398,30,2397,21,2397,2397,13,31,2417,25],"questionIndicies":[2,11,25,9,24,19,10,13,14,5],"judgmentIndicies":[1,0],"internal_node_id":"0.0-3.0-7.0","time_elapsed":86675,"trial_index":10,"trial_type":"survey-likert","responses":"{\"Q0\":\"0\",\"Q1\":\"0\"}","rt":7113},{"control":false,"questionScores":[2398,30,2397,21,2397,2397,13,31,2417,25],"questionIndicies":[2,11,25,9,24,19,10,13,14,5],"judgmentIndicies":[1,0],"internal_node_id":"0.0-3.0-8.0","time_elapsed":100562,"trial_index":11,"trial_type":"survey-likert","responses":"{\"Q0\":\"0\",\"Q1\":\"0\"}","rt":12882},{"control":false,"questionScores":[2398,30,2397,21,2397,2397,13,31,2417,25],"questionIndicies":[2,11,25,9,24,19,10,13,14,5],"judgmentIndicies":[1,0],"internal_node_id":"0.0-3.0-9.0","time_elapsed":107362,"trial_index":12,"trial_type":"survey-likert","responses":"{\"Q0\":\"5\",\"Q1\":\"5\"}","rt":5796}],"__v":0}
{"_id":{"$oid":"5aa86a530d054e0004f8bdb2"},"data":[{"control":false,"questionScores":[2395,2414,21,26,34,2394,14,11,2410,2385],"questionIndicies":[39,23,4,44,12,17,34,7,32,1],"judgmentIndicies":[1,0],"internal_node_id":"0.0-0.0","time_elapsed":104998,"trial_index":0,"trial_type":"survey-multi-choice","responses":"{\"Q0\":\"I consent to participate\"}","rt":104984},{"control":false,"questionScores":[2395,2414,21,26,34,2394,14,11,2410,2385],"questionIndicies":[39,23,4,44,12,17,34,7,32,1],"judgmentIndicies":[1,0],"internal_node_id":"0.0-1.0","time_elapsed":109705,"trial_index":1,"trial_type":"instructions","rt":3705,"view_history":"[{\"page_index\":0,\"viewing_time\":3704}]"},{"control":false,"questionScores":[2395,2414,21,26,34,2394,14,11,2410,2385],"questionIndicies":[39,23,4,44,12,17,34,7,32,1],"judgmentIndicies":[1,0],"internal_node_id":"0.0-2.0","time_elapsed":115522,"trial_index":2,"trial_type":"instructions","rt":4813,"view_history":"[{\"page_index\":0,\"viewing_time\":4813}]"},{"control":false,"questionScores":[2395,2414,21,26,34,2394,14,11,2410,2385],"questionIndicies":[39,23,4,44,12,17,34,7,32,1],"judgmentIndicies":[1,0],"internal_node_id":"0.0-3.0-0.0","time_elapsed":134323,"trial_index":3,"trial_type":"survey-likert","responses":"{\"Q0\":\"2\",\"Q1\":\"1\"}","rt":17796},{"control":false,"questionScores":[2395,2414,21,26,34,2394,14,11,2410,2385],"questionIndicies":[39,23,4,44,12,17,34,7,32,1],"judgmentIndicies":[1,0],"internal_node_id":"0.0-3.0-1.0","time_elapsed":147473,"trial_index":4,"trial_type":"survey-likert","responses":"{\"Q0\":\"3\",\"Q1\":\"4\"}","rt":12145},{"control":false,"questionScores":[2395,2414,21,26,34,2394,14,11,2410,2385],"questionIndicies":[39,23,4,44,12,17,34,7,32,1],"judgmentIndicies":[1,0],"internal_node_id":"0.0-3.0-2.0","time_elapsed":158502,"trial_index":5,"trial_type":"survey-likert","responses":"{\"Q0\":\"3\",\"Q1\":\"4\"}","rt":10024},{"control":false,"questionScores":[2395,2414,21,26,34,2394,14,11,2410,2385],"questionIndicies":[39,23,4,44,12,17,34,7,32,1],"judgmentIndicies":[1,0],"internal_node_id":"0.0-3.0-3.0","time_elapsed":172748,"trial_index":6,"trial_type":"survey-likert","responses":"{\"Q0\":\"5\",\"Q1\":\"4\"}","rt":13240},{"control":false,"questionScores":[2395,2414,21,26,34,2394,14,11,2410,2385],"questionIndicies":[39,23,4,44,12,17,34,7,32,1],"judgmentIndicies":[1,0],"internal_node_id":"0.0-3.0-4.0","time_elapsed":182926,"trial_index":7,"trial_type":"survey-likert","responses":"{\"Q0\":\"2\",\"Q1\":\"2\"}","rt":9172},{"control":false,"questionScores":[2395,2414,21,26,34,2394,14,11,2410,2385],"questionIndicies":[39,23,4,44,12,17,34,7,32,1],"judgmentIndicies":[1,0],"internal_node_id":"0.0-3.0-5.0","time_elapsed":190367,"trial_index":8,"trial_type":"survey-likert","responses":"{\"Q0\":\"3\",\"Q1\":\"2\"}","rt":6435},{"control":false,"questionScores":[2395,2414,21,26,34,2394,14,11,2410,2385],"questionIndicies":[39,23,4,44,12,17,34,7,32,1],"judgmentIndicies":[1,0],"internal_node_id":"0.0-3.0-6.0","time_elapsed":201015,"trial_index":9,"trial_type":"survey-likert","responses":"{\"Q0\":\"3\",\"Q1\":\"3\"}","rt":9644},{"control":false,"questionScores":[2395,2414,21,26,34,2394,14,11,2410,2385],"questionIndicies":[39,23,4,44,12,17,34,7,32,1],"judgmentIndicies":[1,0],"internal_node_id":"0.0-3.0-7.0","time_elapsed":211101,"trial_index":10,"trial_type":"survey-likert","responses":"{\"Q0\":\"1\",\"Q1\":\"1\"}","rt":9080},{"control":false,"questionScores":[2395,2414,21,26,34,2394,14,11,2410,2385],"questionIndicies":[39,23,4,44,12,17,34,7,32,1],"judgmentIndicies":[1,0],"internal_node_id":"0.0-3.0-8.0","time_elapsed":222631,"trial_index":11,"trial_type":"survey-likert","responses":"{\"Q0\":\"2\",\"Q1\":\"1\"}","rt":10525},{"control":false,"questionScores":[2395,2414,21,26,34,2394,14,11,2410,2385],"questionIndicies":[39,23,4,44,12,17,34,7,32,1],"judgmentIndicies":[1,0],"internal_node_id":"0.0-3.0-9.0","time_elapsed":230823,"trial_index":12,"trial_type":"survey-likert","responses":"{\"Q0\":\"4\",\"Q1\":\"2\"}","rt":7188}],"__v":0}
{"_id":{"$oid":"5aa86a6d0d054e0004f8bdb3"},"data":[{"control":false,"questionScores":[2413,33,2399,21,2411,20,10,8,2392,2436],"questionIndicies":[33,13,12,41,26,47,25,46,49,7],"judgmentIndicies":[0,1],"internal_node_id":"0.0-0.0","time_elapsed":3504,"trial_index":0,"trial_type":"survey-multi-choice","responses":"{\"Q0\":\"I consent to participate\"}","rt":3492},{"control":false,"questionScores":[2413,33,2399,21,2411,20,10,8,2392,2436],"questionIndicies":[33,13,12,41,26,47,25,46,49,7],"judgmentIndicies":[0,1],"internal_node_id":"0.0-1.0","time_elapsed":7055,"trial_index":1,"trial_type":"instructions","rt":2549,"view_history":"[{\"page_index\":0,\"viewing_time\":2548}]"},{"control":false,"questionScores":[2413,33,2399,21,2411,20,10,8,2392,2436],"questionIndicies":[33,13,12,41,26,47,25,46,49,7],"judgmentIndicies":[0,1],"internal_node_id":"0.0-2.0","time_elapsed":11493,"trial_index":2,"trial_type":"instructions","rt":3433,"view_history":"[{\"page_index\":0,\"viewing_time\":3431}]"},{"control":false,"questionScores":[2413,33,2399,21,2411,20,10,8,2392,2436],"questionIndicies":[33,13,12,41,26,47,25,46,49,7],"judgmentIndicies":[0,1],"internal_node_id":"0.0-3.0-0.0","time_elapsed":29863,"trial_index":3,"trial_type":"survey-likert","responses":"{\"Q0\":\"6\",\"Q1\":\"3\"}","rt":17359},{"control":false,"questionScores":[2413,33,2399,21,2411,20,10,8,2392,2436],"questionIndicies":[33,13,12,41,26,47,25,46,49,7],"judgmentIndicies":[0,1],"internal_node_id":"0.0-3.0-1.0","time_elapsed":37835,"trial_index":4,"trial_type":"survey-likert","responses":"{\"Q0\":\"3\",\"Q1\":\"2\"}","rt":6971},{"control":false,"questionScores":[2413,33,2399,21,2411,20,10,8,2392,2436],"questionIndicies":[33,13,12,41,26,47,25,46,49,7],"judgmentIndicies":[0,1],"internal_node_id":"0.0-3.0-2.0","time_elapsed":48522,"trial_index":5,"trial_type":"survey-likert","responses":"{\"Q0\":\"5\",\"Q1\":\"3\"}","rt":9679},{"control":false,"questionScores":[2413,33,2399,21,2411,20,10,8,2392,2436],"questionIndicies":[33,13,12,41,26,47,25,46,49,7],"judgmentIndicies":[0,1],"internal_node_id":"0.0-3.0-3.0","time_elapsed":58091,"trial_index":6,"trial_type":"survey-likert","responses":"{\"Q0\":\"3\",\"Q1\":\"2\"}","rt":8564},{"control":false,"questionScores":[2413,33,2399,21,2411,20,10,8,2392,2436],"questionIndicies":[33,13,12,41,26,47,25,46,49,7],"judgmentIndicies":[0,1],"internal_node_id":"0.0-3.0-4.0","time_elapsed":65422,"trial_index":7,"trial_type":"survey-likert","responses":"{\"Q0\":\"6\",\"Q1\":\"3\"}","rt":6327},{"control":false,"questionScores":[2413,33,2399,21,2411,20,10,8,2392,2436],"questionIndicies":[33,13,12,41,26,47,25,46,49,7],"judgmentIndicies":[0,1],"internal_node_id":"0.0-3.0-5.0","time_elapsed":71821,"trial_index":8,"trial_type":"survey-likert","responses":"{\"Q0\":\"6\",\"Q1\":\"4\"}","rt":5395},{"control":false,"questionScores":[2413,33,2399,21,2411,20,10,8,2392,2436],"questionIndicies":[33,13,12,41,26,47,25,46,49,7],"judgmentIndicies":[0,1],"internal_node_id":"0.0-3.0-6.0","time_elapsed":78454,"trial_index":9,"trial_type":"survey-likert","responses":"{\"Q0\":\"6\",\"Q1\":\"5\"}","rt":5627},{"control":false,"questionScores":[2413,33,2399,21,2411,20,10,8,2392,2436],"questionIndicies":[33,13,12,41,26,47,25,46,49,7],"judgmentIndicies":[0,1],"internal_node_id":"0.0-3.0-7.0","time_elapsed":86028,"trial_index":10,"trial_type":"survey-likert","responses":"{\"Q0\":\"4\",\"Q1\":\"3\"}","rt":6571},{"control":false,"questionScores":[2413,33,2399,21,2411,20,10,8,2392,2436],"questionIndicies":[33,13,12,41,26,47,25,46,49,7],"judgmentIndicies":[0,1],"internal_node_id":"0.0-3.0-8.0","time_elapsed":94285,"trial_index":11,"trial_type":"survey-likert","responses":"{\"Q0\":\"5\",\"Q1\":\"3\"}","rt":7253},{"control":false,"questionScores":[2413,33,2399,21,2411,20,10,8,2392,2436],"questionIndicies":[33,13,12,41,26,47,25,46,49,7],"judgmentIndicies":[0,1],"internal_node_id":"0.0-3.0-9.0","time_elapsed":99749,"trial_index":12,"trial_type":"survey-likert","responses":"{\"Q0\":\"1\",\"Q1\":\"1\"}","rt":4459}],"__v":0}
{"_id":{"$oid":"5aa86a790d054e0004f8bdb4"},"data":[{"control":false,"questionScores":[7,2402,28,13,2388,6,35,2393,2392,2398],"questionIndicies":[9,22,23,44,45,28,29,39,17,41],"judgmentIndicies":[0,1],"internal_node_id":"0.0-0.0","time_elapsed":65670,"trial_index":0,"trial_type":"survey-multi-choice","responses":"{\"Q0\":\"I consent to participate\"}","rt":65660},{"control":false,"questionScores":[7,2402,28,13,2388,6,35,2393,2392,2398],"questionIndicies":[9,22,23,44,45,28,29,39,17,41],"judgmentIndicies":[0,1],"internal_node_id":"0.0-1.0","time_elapsed":71222,"trial_index":1,"trial_type":"instructions","rt":4550,"view_history":"[{\"page_index\":0,\"viewing_time\":4549}]"},{"control":false,"questionScores":[7,2402,28,13,2388,6,35,2393,2392,2398],"questionIndicies":[9,22,23,44,45,28,29,39,17,41],"judgmentIndicies":[0,1],"internal_node_id":"0.0-2.0","time_elapsed":80022,"trial_index":2,"trial_type":"instructions","rt":7799,"view_history":"[{\"page_index\":0,\"viewing_time\":7798}]"},{"control":false,"questionScores":[7,2402,28,13,2388,6,35,2393,2392,2398],"questionIndicies":[9,22,23,44,45,28,29,39,17,41],"judgmentIndicies":[0,1],"internal_node_id":"0.0-3.0-0.0","time_elapsed":106791,"trial_index":3,"trial_type":"survey-likert","responses":"{\"Q0\":\"4\",\"Q1\":\"2\"}","rt":25762},{"control":false,"questionScores":[7,2402,28,13,2388,6,35,2393,2392,2398],"questionIndicies":[9,22,23,44,45,28,29,39,17,41],"judgmentIndicies":[0,1],"internal_node_id":"0.0-3.0-1.0","time_elapsed":128438,"trial_index":4,"trial_type":"survey-likert","responses":"{\"Q0\":\"5\",\"Q1\":\"4\"}","rt":20643},{"control":false,"questionScores":[7,2402,28,13,2388,6,35,2393,2392,2398],"questionIndicies":[9,22,23,44,45,28,29,39,17,41],"judgmentIndicies":[0,1],"internal_node_id":"0.0-3.0-2.0","time_elapsed":142187,"trial_index":5,"trial_type":"survey-likert","responses":"{\"Q0\":\"2\",\"Q1\":\"3\"}","rt":12743},{"control":false,"questionScores":[7,2402,28,13,2388,6,35,2393,2392,2398],"questionIndicies":[9,22,23,44,45,28,29,39,17,41],"judgmentIndicies":[0,1],"internal_node_id":"0.0-3.0-3.0","time_elapsed":157980,"trial_index":6,"trial_type":"survey-likert","responses":"{\"Q0\":\"4\",\"Q1\":\"4\"}","rt":14788},{"control":false,"questionScores":[7,2402,28,13,2388,6,35,2393,2392,2398],"questionIndicies":[9,22,23,44,45,28,29,39,17,41],"judgmentIndicies":[0,1],"internal_node_id":"0.0-3.0-4.0","time_elapsed":201499,"trial_index":7,"trial_type":"survey-likert","responses":"{\"Q0\":\"1\",\"Q1\":\"1\"}","rt":42515},{"control":false,"questionScores":[7,2402,28,13,2388,6,35,2393,2392,2398],"questionIndicies":[9,22,23,44,45,28,29,39,17,41],"judgmentIndicies":[0,1],"internal_node_id":"0.0-3.0-5.0","time_elapsed":216027,"trial_index":8,"trial_type":"survey-likert","responses":"{\"Q0\":\"0\",\"Q1\":\"3\"}","rt":13524},{"control":false,"questionScores":[7,2402,28,13,2388,6,35,2393,2392,2398],"questionIndicies":[9,22,23,44,45,28,29,39,17,41],"judgmentIndicies":[0,1],"internal_node_id":"0.0-3.0-6.0","time_elapsed":230393,"trial_index":9,"trial_type":"survey-likert","responses":"{\"Q0\":\"3\",\"Q1\":\"4\"}","rt":13361},{"control":false,"questionScores":[7,2402,28,13,2388,6,35,2393,2392,2398],"questionIndicies":[9,22,23,44,45,28,29,39,17,41],"judgmentIndicies":[0,1],"internal_node_id":"0.0-3.0-7.0","time_elapsed":243906,"trial_index":10,"trial_type":"survey-likert","responses":"{\"Q0\":\"5\",\"Q1\":\"2\"}","rt":12510},{"control":false,"questionScores":[7,2402,28,13,2388,6,35,2393,2392,2398],"questionIndicies":[9,22,23,44,45,28,29,39,17,41],"judgmentIndicies":[0,1],"internal_node_id":"0.0-3.0-8.0","time_elapsed":253303,"trial_index":11,"trial_type":"survey-likert","responses":"{\"Q0\":\"4\",\"Q1\":\"4\"}","rt":8393},{"control":false,"questionScores":[7,2402,28,13,2388,6,35,2393,2392,2398],"questionIndicies":[9,22,23,44,45,28,29,39,17,41],"judgmentIndicies":[0,1],"internal_node_id":"0.0-3.0-9.0","time_elapsed":262364,"trial_index":12,"trial_type":"survey-likert","responses":"{\"Q0\":\"0\",\"Q1\":\"2\"}","rt":8058}],"__v":0}
{"_id":{"$oid":"5aa86aed0d054e0004f8bdb5"},"data":[{"control":false,"questionScores":[27,2408,2378,2410,15,2397,30,34,2405,23],"questionIndicies":[18,11,6,7,19,38,10,41,29,9],"judgmentIndicies":[1,0],"internal_node_id":"0.0-0.0","time_elapsed":3217,"trial_index":0,"trial_type":"survey-multi-choice","responses":"{\"Q0\":\"I consent to participate\"}","rt":3208},{"control":false,"questionScores":[27,2408,2378,2410,15,2397,30,34,2405,23],"questionIndicies":[18,11,6,7,19,38,10,41,29,9],"judgmentIndicies":[1,0],"internal_node_id":"0.0-1.0","time_elapsed":5974,"trial_index":1,"trial_type":"instructions","rt":1754,"view_history":"[{\"page_index\":0,\"viewing_time\":1753}]"},{"control":false,"questionScores":[27,2408,2378,2410,15,2397,30,34,2405,23],"questionIndicies":[18,11,6,7,19,38,10,41,29,9],"judgmentIndicies":[1,0],"internal_node_id":"0.0-2.0","time_elapsed":10714,"trial_index":2,"trial_type":"instructions","rt":3740,"view_history":"[{\"page_index\":0,\"viewing_time\":3740}]"},{"control":false,"questionScores":[27,2408,2378,2410,15,2397,30,34,2405,23],"questionIndicies":[18,11,6,7,19,38,10,41,29,9],"judgmentIndicies":[1,0],"internal_node_id":"0.0-3.0-0.0","time_elapsed":19138,"trial_index":3,"trial_type":"survey-likert","responses":"{\"Q0\":\"1\",\"Q1\":\"4\"}","rt":7419},{"control":false,"questionScores":[27,2408,2378,2410,15,2397,30,34,2405,23],"questionIndicies":[18,11,6,7,19,38,10,41,29,9],"judgmentIndicies":[1,0],"internal_node_id":"0.0-3.0-1.0","time_elapsed":25476,"trial_index":4,"trial_type":"survey-likert","responses":"{\"Q0\":\"2\",\"Q1\":\"2\"}","rt":5336},{"control":false,"questionScores":[27,2408,2378,2410,15,2397,30,34,2405,23],"questionIndicies":[18,11,6,7,19,38,10,41,29,9],"judgmentIndicies":[1,0],"internal_node_id":"0.0-3.0-2.0","time_elapsed":32125,"trial_index":5,"trial_type":"survey-likert","responses":"{\"Q0\":\"3\",\"Q1\":\"4\"}","rt":5646},{"control":false,"questionScores":[27,2408,2378,2410,15,2397,30,34,2405,23],"questionIndicies":[18,11,6,7,19,38,10,41,29,9],"judgmentIndicies":[1,0],"internal_node_id":"0.0-3.0-3.0","time_elapsed":38257,"trial_index":6,"trial_type":"survey-likert","responses":"{\"Q0\":\"2\",\"Q1\":\"1\"}","rt":5128},{"control":false,"questionScores":[27,2408,2378,2410,15,2397,30,34,2405,23],"questionIndicies":[18,11,6,7,19,38,10,41,29,9],"judgmentIndicies":[1,0],"internal_node_id":"0.0-3.0-4.0","time_elapsed":45092,"trial_index":7,"trial_type":"survey-likert","responses":"{\"Q0\":\"3\",\"Q1\":\"3\"}","rt":5831},{"control":false,"questionScores":[27,2408,2378,2410,15,2397,30,34,2405,23],"questionIndicies":[18,11,6,7,19,38,10,41,29,9],"judgmentIndicies":[1,0],"internal_node_id":"0.0-3.0-5.0","time_elapsed":51074,"trial_index":8,"trial_type":"survey-likert","responses":"{\"Q0\":\"4\",\"Q1\":\"3\"}","rt":4977},{"control":false,"questionScores":[27,2408,2378,2410,15,2397,30,34,2405,23],"questionIndicies":[18,11,6,7,19,38,10,41,29,9],"judgmentIndicies":[1,0],"internal_node_id":"0.0-3.0-6.0","time_elapsed":58034,"trial_index":9,"trial_type":"survey-likert","responses":"{\"Q0\":\"4\",\"Q1\":\"3\"}","rt":5957},{"control":false,"questionScores":[27,2408,2378,2410,15,2397,30,34,2405,23],"questionIndicies":[18,11,6,7,19,38,10,41,29,9],"judgmentIndicies":[1,0],"internal_node_id":"0.0-3.0-7.0","time_elapsed":64170,"trial_index":10,"trial_type":"survey-likert","responses":"{\"Q0\":\"2\",\"Q1\":\"1\"}","rt":5134},{"control":false,"questionScores":[27,2408,2378,2410,15,2397,30,34,2405,23],"questionIndicies":[18,11,6,7,19,38,10,41,29,9],"judgmentIndicies":[1,0],"internal_node_id":"0.0-3.0-8.0","time_elapsed":78002,"trial_index":11,"trial_type":"survey-likert","responses":"{\"Q0\":\"3\",\"Q1\":\"1\"}","rt":12830},{"control":false,"questionScores":[27,2408,2378,2410,15,2397,30,34,2405,23],"questionIndicies":[18,11,6,7,19,38,10,41,29,9],"judgmentIndicies":[1,0],"internal_node_id":"0.0-3.0-9.0","time_elapsed":81893,"trial_index":12,"trial_type":"survey-likert","responses":"{\"Q0\":\"2\",\"Q1\":\"3\"}","rt":2889}],"__v":0}
{"_id":{"$oid":"5aa86b130d054e0004f8bdb6"},"data":[{"control":false,"questionScores":[2395,24,2412,36,2394,25,2402,15,29,2396],"questionIndicies":[28,27,26,35,13,33,4,38,16,40],"judgmentIndicies":[0,1],"internal_node_id":"0.0-0.0","time_elapsed":10208,"trial_index":0,"trial_type":"survey-multi-choice","responses":"{\"Q0\":\"I consent to participate\"}","rt":10119},{"control":false,"questionScores":[2395,24,2412,36,2394,25,2402,15,29,2396],"questionIndicies":[28,27,26,35,13,33,4,38,16,40],"judgmentIndicies":[0,1],"internal_node_id":"0.0-1.0","time_elapsed":62699,"trial_index":1,"trial_type":"instructions","rt":50526,"view_history":"[{\"page_index\":0,\"viewing_time\":50524}]"},{"control":false,"questionScores":[2395,24,2412,36,2394,25,2402,15,29,2396],"questionIndicies":[28,27,26,35,13,33,4,38,16,40],"judgmentIndicies":[0,1],"internal_node_id":"0.0-2.0","time_elapsed":65207,"trial_index":2,"trial_type":"instructions","rt":1506,"view_history":"[{\"page_index\":0,\"viewing_time\":1506}]"},{"control":false,"questionScores":[2395,24,2412,36,2394,25,2402,15,29,2396],"questionIndicies":[28,27,26,35,13,33,4,38,16,40],"judgmentIndicies":[0,1],"internal_node_id":"0.0-3.0-0.0","time_elapsed":73728,"trial_index":3,"trial_type":"survey-likert","responses":"{\"Q0\":\"5\",\"Q1\":\"4\"}","rt":7515},{"control":false,"questionScores":[2395,24,2412,36,2394,25,2402,15,29,2396],"questionIndicies":[28,27,26,35,13,33,4,38,16,40],"judgmentIndicies":[0,1],"internal_node_id":"0.0-3.0-1.0","time_elapsed":80916,"trial_index":4,"trial_type":"survey-likert","responses":"{\"Q0\":\"4\",\"Q1\":\"3\"}","rt":6181},{"control":false,"questionScores":[2395,24,2412,36,2394,25,2402,15,29,2396],"questionIndicies":[28,27,26,35,13,33,4,38,16,40],"judgmentIndicies":[0,1],"internal_node_id":"0.0-3.0-2.0","time_elapsed":89202,"trial_index":5,"trial_type":"survey-likert","responses":"{\"Q0\":\"4\",\"Q1\":\"6\"}","rt":7280},{"control":false,"questionScores":[2395,24,2412,36,2394,25,2402,15,29,2396],"questionIndicies":[28,27,26,35,13,33,4,38,16,40],"judgmentIndicies":[0,1],"internal_node_id":"0.0-3.0-3.0","time_elapsed":96843,"trial_index":6,"trial_type":"survey-likert","responses":"{\"Q0\":\"1\",\"Q1\":\"1\"}","rt":6637},{"control":false,"questionScores":[2395,24,2412,36,2394,25,2402,15,29,2396],"questionIndicies":[28,27,26,35,13,33,4,38,16,40],"judgmentIndicies":[0,1],"internal_node_id":"0.0-3.0-4.0","time_elapsed":105218,"trial_index":7,"trial_type":"survey-likert","responses":"{\"Q0\":\"0\",\"Q1\":\"1\"}","rt":7371},{"control":false,"questionScores":[2395,24,2412,36,2394,25,2402,15,29,2396],"questionIndicies":[28,27,26,35,13,33,4,38,16,40],"judgmentIndicies":[0,1],"internal_node_id":"0.0-3.0-5.0","time_elapsed":184206,"trial_index":8,"trial_type":"survey-likert","responses":"{\"Q0\":\"5\",\"Q1\":\"5\"}","rt":77049},{"control":false,"questionScores":[2395,24,2412,36,2394,25,2402,15,29,2396],"questionIndicies":[28,27,26,35,13,33,4,38,16,40],"judgmentIndicies":[0,1],"internal_node_id":"0.0-3.0-6.0","time_elapsed":191644,"trial_index":9,"trial_type":"survey-likert","responses":"{\"Q0\":\"2\",\"Q1\":\"5\"}","rt":6423},{"control":false,"questionScores":[2395,24,2412,36,2394,25,2402,15,29,2396],"questionIndicies":[28,27,26,35,13,33,4,38,16,40],"judgmentIndicies":[0,1],"internal_node_id":"0.0-3.0-7.0","time_elapsed":197277,"trial_index":10,"trial_type":"survey-likert","responses":"{\"Q0\":\"1\",\"Q1\":\"4\"}","rt":4627},{"control":false,"questionScores":[2395,24,2412,36,2394,25,2402,15,29,2396],"questionIndicies":[28,27,26,35,13,33,4,38,16,40],"judgmentIndicies":[0,1],"internal_node_id":"0.0-3.0-8.0","time_elapsed":203973,"trial_index":11,"trial_type":"survey-likert","responses":"{\"Q0\":\"0\",\"Q1\":\"2\"}","rt":5691},{"control":false,"questionScores":[2395,24,2412,36,2394,25,2402,15,29,2396],"questionIndicies":[28,27,26,35,13,33,4,38,16,40],"judgmentIndicies":[0,1],"internal_node_id":"0.0-3.0-9.0","time_elapsed":276867,"trial_index":12,"trial_type":"survey-likert","responses":"{\"Q0\":\"2\",\"Q1\":\"6\"}","rt":71707}],"__v":0}
{"_id":{"$oid":"5aa86b470d054e0004f8bdb7"},"data":[{"control":false,"questionScores":[2407,4,2414,28,18,36,2407,29,2415,2406],"questionIndicies":[6,19,3,41,46,26,8,36,21,24],"judgmentIndicies":[1,0],"internal_node_id":"0.0-0.0","time_elapsed":29510,"trial_index":0,"trial_type":"survey-multi-choice","responses":"{\"Q0\":\"I consent to participate\"}","rt":29487},{"control":false,"questionScores":[2407,4,2414,28,18,36,2407,29,2415,2406],"questionIndicies":[6,19,3,41,46,26,8,36,21,24],"judgmentIndicies":[1,0],"internal_node_id":"0.0-1.0","time_elapsed":35598,"trial_index":1,"trial_type":"instructions","rt":5087,"view_history":"[{\"page_index\":0,\"viewing_time\":5086}]"},{"control":false,"questionScores":[2407,4,2414,28,18,36,2407,29,2415,2406],"questionIndicies":[6,19,3,41,46,26,8,36,21,24],"judgmentIndicies":[1,0],"internal_node_id":"0.0-2.0","time_elapsed":43637,"trial_index":2,"trial_type":"instructions","rt":7039,"view_history":"[{\"page_index\":0,\"viewing_time\":7038}]"},{"control":false,"questionScores":[2407,4,2414,28,18,36,2407,29,2415,2406],"questionIndicies":[6,19,3,41,46,26,8,36,21,24],"judgmentIndicies":[1,0],"internal_node_id":"0.0-3.0-0.0","time_elapsed":67151,"trial_index":3,"trial_type":"survey-likert","responses":"{\"Q0\":\"0\",\"Q1\":\"5\"}","rt":22501},{"control":false,"questionScores":[2407,4,2414,28,18,36,2407,29,2415,2406],"questionIndicies":[6,19,3,41,46,26,8,36,21,24],"judgmentIndicies":[1,0],"internal_node_id":"0.0-3.0-1.0","time_elapsed":84613,"trial_index":4,"trial_type":"survey-likert","responses":"{\"Q0\":\"0\",\"Q1\":\"1\"}","rt":16455},{"control":false,"questionScores":[2407,4,2414,28,18,36,2407,29,2415,2406],"questionIndicies":[6,19,3,41,46,26,8,36,21,24],"judgmentIndicies":[1,0],"internal_node_id":"0.0-3.0-2.0","time_elapsed":93541,"trial_index":5,"trial_type":"survey-likert","responses":"{\"Q0\":\"2\",\"Q1\":\"4\"}","rt":7926},{"control":false,"questionScores":[2407,4,2414,28,18,36,2407,29,2415,2406],"questionIndicies":[6,19,3,41,46,26,8,36,21,24],"judgmentIndicies":[1,0],"internal_node_id":"0.0-3.0-3.0","time_elapsed":106980,"trial_index":6,"trial_type":"survey-likert","responses":"{\"Q0\":\"1\",\"Q1\":\"1\"}","rt":12437},{"control":false,"questionScores":[2407,4,2414,28,18,36,2407,29,2415,2406],"questionIndicies":[6,19,3,41,46,26,8,36,21,24],"judgmentIndicies":[1,0],"internal_node_id":"0.0-3.0-4.0","time_elapsed":122578,"trial_index":7,"trial_type":"survey-likert","responses":"{\"Q0\":\"2\",\"Q1\":\"4\"}","rt":14591},{"control":false,"questionScores":[2407,4,2414,28,18,36,2407,29,2415,2406],"questionIndicies":[6,19,3,41,46,26,8,36,21,24],"judgmentIndicies":[1,0],"internal_node_id":"0.0-3.0-5.0","time_elapsed":134363,"trial_index":8,"trial_type":"survey-likert","responses":"{\"Q0\":\"2\",\"Q1\":\"3\"}","rt":10783},{"control":false,"questionScores":[2407,4,2414,28,18,36,2407,29,2415,2406],"questionIndicies":[6,19,3,41,46,26,8,36,21,24],"judgmentIndicies":[1,0],"internal_node_id":"0.0-3.0-6.0","time_elapsed":193338,"trial_index":9,"trial_type":"survey-likert","responses":"{\"Q0\":\"1\",\"Q1\":\"0\"}","rt":57973},{"control":false,"questionScores":[2407,4,2414,28,18,36,2407,29,2415,2406],"questionIndicies":[6,19,3,41,46,26,8,36,21,24],"judgmentIndicies":[1,0],"internal_node_id":"0.0-3.0-7.0","time_elapsed":211465,"trial_index":10,"trial_type":"survey-likert","responses":"{\"Q0\":\"4\",\"Q1\":\"5\"}","rt":17121},{"control":false,"questionScores":[2407,4,2414,28,18,36,2407,29,2415,2406],"questionIndicies":[6,19,3,41,46,26,8,36,21,24],"judgmentIndicies":[1,0],"internal_node_id":"0.0-3.0-8.0","time_elapsed":221010,"trial_index":11,"trial_type":"survey-likert","responses":"{\"Q0\":\"1\",\"Q1\":\"4\"}","rt":8541},{"control":false,"questionScores":[2407,4,2414,28,18,36,2407,29,2415,2406],"questionIndicies":[6,19,3,41,46,26,8,36,21,24],"judgmentIndicies":[1,0],"internal_node_id":"0.0-3.0-9.0","time_elapsed":232376,"trial_index":12,"trial_type":"survey-likert","responses":"{\"Q0\":\"0\",\"Q1\":\"4\"}","rt":10365}],"__v":0}
{"_id":{"$oid":"5aa86b5c0d054e0004f8bdb8"},"data":[{"control":false,"questionScores":[29,19,5,2398,2392,14,2392,2410,4,2400],"questionIndicies":[32,36,15,49,4,30,40,1,18,14],"judgmentIndicies":[1,0],"internal_node_id":"0.0-0.0","time_elapsed":7400,"trial_index":0,"trial_type":"survey-multi-choice","responses":"{\"Q0\":\"I consent to participate\"}","rt":7363},{"control":false,"questionScores":[29,19,5,2398,2392,14,2392,2410,4,2400],"questionIndicies":[32,36,15,49,4,30,40,1,18,14],"judgmentIndicies":[1,0],"internal_node_id":"0.0-1.0","time_elapsed":17066,"trial_index":1,"trial_type":"instructions","rt":8129,"view_history":"[{\"page_index\":0,\"viewing_time\":8127}]"},{"control":false,"questionScores":[29,19,5,2398,2392,14,2392,2410,4,2400],"questionIndicies":[32,36,15,49,4,30,40,1,18,14],"judgmentIndicies":[1,0],"internal_node_id":"0.0-2.0","time_elapsed":20012,"trial_index":2,"trial_type":"instructions","rt":1946,"view_history":"[{\"page_index\":0,\"viewing_time\":1946}]"},{"control":false,"questionScores":[29,19,5,2398,2392,14,2392,2410,4,2400],"questionIndicies":[32,36,15,49,4,30,40,1,18,14],"judgmentIndicies":[1,0],"internal_node_id":"0.0-3.0-0.0","time_elapsed":30816,"trial_index":3,"trial_type":"survey-likert","responses":"{\"Q0\":\"2\",\"Q1\":\"4\"}","rt":9794},{"control":false,"questionScores":[29,19,5,2398,2392,14,2392,2410,4,2400],"questionIndicies":[32,36,15,49,4,30,40,1,18,14],"judgmentIndicies":[1,0],"internal_node_id":"0.0-3.0-1.0","time_elapsed":39564,"trial_index":4,"trial_type":"survey-likert","responses":"{\"Q0\":\"1\",\"Q1\":\"2\"}","rt":7743},{"control":false,"questionScores":[29,19,5,2398,2392,14,2392,2410,4,2400],"questionIndicies":[32,36,15,49,4,30,40,1,18,14],"judgmentIndicies":[1,0],"internal_node_id":"0.0-3.0-2.0","time_elapsed":45619,"trial_index":5,"trial_type":"survey-likert","responses":"{\"Q0\":\"4\",\"Q1\":\"1\"}","rt":5049},{"control":false,"questionScores":[29,19,5,2398,2392,14,2392,2410,4,2400],"questionIndicies":[32,36,15,49,4,30,40,1,18,14],"judgmentIndicies":[1,0],"internal_node_id":"0.0-3.0-3.0","time_elapsed":53670,"trial_index":6,"trial_type":"survey-likert","responses":"{\"Q0\":\"1\",\"Q1\":\"2\"}","rt":7046},{"control":false,"questionScores":[29,19,5,2398,2392,14,2392,2410,4,2400],"questionIndicies":[32,36,15,49,4,30,40,1,18,14],"judgmentIndicies":[1,0],"internal_node_id":"0.0-3.0-4.0","time_elapsed":60345,"trial_index":7,"trial_type":"survey-likert","responses":"{\"Q0\":\"1\",\"Q1\":\"2\"}","rt":5670},{"control":false,"questionScores":[29,19,5,2398,2392,14,2392,2410,4,2400],"questionIndicies":[32,36,15,49,4,30,40,1,18,14],"judgmentIndicies":[1,0],"internal_node_id":"0.0-3.0-5.0","time_elapsed":68794,"trial_index":8,"trial_type":"survey-likert","responses":"{\"Q0\":\"2\",\"Q1\":\"3\"}","rt":7445},{"control":false,"questionScores":[29,19,5,2398,2392,14,2392,2410,4,2400],"questionIndicies":[32,36,15,49,4,30,40,1,18,14],"judgmentIndicies":[1,0],"internal_node_id":"0.0-3.0-6.0","time_elapsed":75454,"trial_index":9,"trial_type":"survey-likert","responses":"{\"Q0\":\"2\",\"Q1\":\"1\"}","rt":5656},{"control":false,"questionScores":[29,19,5,2398,2392,14,2392,2410,4,2400],"questionIndicies":[32,36,15,49,4,30,40,1,18,14],"judgmentIndicies":[1,0],"internal_node_id":"0.0-3.0-7.0","time_elapsed":83596,"trial_index":10,"trial_type":"survey-likert","responses":"{\"Q0\":\"1\",\"Q1\":\"3\"}","rt":7139},{"control":false,"questionScores":[29,19,5,2398,2392,14,2392,2410,4,2400],"questionIndicies":[32,36,15,49,4,30,40,1,18,14],"judgmentIndicies":[1,0],"internal_node_id":"0.0-3.0-8.0","time_elapsed":90758,"trial_index":11,"trial_type":"survey-likert","responses":"{\"Q0\":\"2\",\"Q1\":\"1\"}","rt":6161},{"control":false,"questionScores":[29,19,5,2398,2392,14,2392,2410,4,2400],"questionIndicies":[32,36,15,49,4,30,40,1,18,14],"judgmentIndicies":[1,0],"internal_node_id":"0.0-3.0-9.0","time_elapsed":97934,"trial_index":12,"trial_type":"survey-likert","responses":"{\"Q0\":\"4\",\"Q1\":\"4\"}","rt":6170}],"__v":0}
{"_id":{"$oid":"5aa86bbe0d054e0004f8bdb9"},"data":[{"control":false,"questionScores":[2395,2403,2404,20,36,23,2398,2407,19,14],"questionIndicies":[0,38,13,31,37,28,46,22,42,1],"judgmentIndicies":[0,1],"internal_node_id":"0.0-0.0","time_elapsed":3541,"trial_index":0,"trial_type":"survey-multi-choice","responses":"{\"Q0\":\"I consent to participate\"}","rt":3512},{"control":false,"questionScores":[2395,2403,2404,20,36,23,2398,2407,19,14],"questionIndicies":[0,38,13,31,37,28,46,22,42,1],"judgmentIndicies":[0,1],"internal_node_id":"0.0-1.0","time_elapsed":5579,"trial_index":1,"trial_type":"instructions","rt":1035,"view_history":"[{\"page_index\":0,\"viewing_time\":1034}]"},{"control":false,"questionScores":[2395,2403,2404,20,36,23,2398,2407,19,14],"questionIndicies":[0,38,13,31,37,28,46,22,42,1],"judgmentIndicies":[0,1],"internal_node_id":"0.0-2.0","time_elapsed":9631,"trial_index":2,"trial_type":"instructions","rt":3050,"view_history":"[{\"page_index\":0,\"viewing_time\":3050}]"},{"control":false,"questionScores":[2395,2403,2404,20,36,23,2398,2407,19,14],"questionIndicies":[0,38,13,31,37,28,46,22,42,1],"judgmentIndicies":[0,1],"internal_node_id":"0.0-3.0-0.0","time_elapsed":17679,"trial_index":3,"trial_type":"survey-likert","responses":"{\"Q0\":\"5\",\"Q1\":\"1\"}","rt":7039},{"control":false,"questionScores":[2395,2403,2404,20,36,23,2398,2407,19,14],"questionIndicies":[0,38,13,31,37,28,46,22,42,1],"judgmentIndicies":[0,1],"internal_node_id":"0.0-3.0-1.0","time_elapsed":26897,"trial_index":4,"trial_type":"survey-likert","responses":"{\"Q0\":\"6\",\"Q1\":\"0\"}","rt":8213},{"control":false,"questionScores":[2395,2403,2404,20,36,23,2398,2407,19,14],"questionIndicies":[0,38,13,31,37,28,46,22,42,1],"judgmentIndicies":[0,1],"internal_node_id":"0.0-3.0-2.0","time_elapsed":34069,"trial_index":5,"trial_type":"survey-likert","responses":"{\"Q0\":\"6\",\"Q1\":\"3\"}","rt":6166},{"control":false,"questionScores":[2395,2403,2404,20,36,23,2398,2407,19,14],"questionIndicies":[0,38,13,31,37,28,46,22,42,1],"judgmentIndicies":[0,1],"internal_node_id":"0.0-3.0-3.0","time_elapsed":40523,"trial_index":6,"trial_type":"survey-likert","responses":"{\"Q0\":\"6\",\"Q1\":\"2\"}","rt":5447},{"control":false,"questionScores":[2395,2403,2404,20,36,23,2398,2407,19,14],"questionIndicies":[0,38,13,31,37,28,46,22,42,1],"judgmentIndicies":[0,1],"internal_node_id":"0.0-3.0-4.0","time_elapsed":45565,"trial_index":7,"trial_type":"survey-likert","responses":"{\"Q0\":\"6\",\"Q1\":\"5\"}","rt":4035},{"control":false,"questionScores":[2395,2403,2404,20,36,23,2398,2407,19,14],"questionIndicies":[0,38,13,31,37,28,46,22,42,1],"judgmentIndicies":[0,1],"internal_node_id":"0.0-3.0-5.0","time_elapsed":52917,"trial_index":8,"trial_type":"survey-likert","responses":"{\"Q0\":\"5\",\"Q1\":\"4\"}","rt":6346},{"control":false,"questionScores":[2395,2403,2404,20,36,23,2398,2407,19,14],"questionIndicies":[0,38,13,31,37,28,46,22,42,1],"judgmentIndicies":[0,1],"internal_node_id":"0.0-3.0-6.0","time_elapsed":59001,"trial_index":9,"trial_type":"survey-likert","responses":"{\"Q0\":\"6\",\"Q1\":\"2\"}","rt":5077},{"control":false,"questionScores":[2395,2403,2404,20,36,23,2398,2407,19,14],"questionIndicies":[0,38,13,31,37,28,46,22,42,1],"judgmentIndicies":[0,1],"internal_node_id":"0.0-3.0-7.0","time_elapsed":66906,"trial_index":10,"trial_type":"survey-likert","responses":"{\"Q0\":\"6\",\"Q1\":\"3\"}","rt":6897},{"control":false,"questionScores":[2395,2403,2404,20,36,23,2398,2407,19,14],"questionIndicies":[0,38,13,31,37,28,46,22,42,1],"judgmentIndicies":[0,1],"internal_node_id":"0.0-3.0-8.0","time_elapsed":74487,"trial_index":11,"trial_type":"survey-likert","responses":"{\"Q0\":\"4\",\"Q1\":\"1\"}","rt":6575},{"control":false,"questionScores":[2395,2403,2404,20,36,23,2398,2407,19,14],"questionIndicies":[0,38,13,31,37,28,46,22,42,1],"judgmentIndicies":[0,1],"internal_node_id":"0.0-3.0-9.0","time_elapsed":79425,"trial_index":12,"trial_type":"survey-likert","responses":"{\"Q0\":\"5\",\"Q1\":\"6\"}","rt":3933}],"__v":0}
