{"_id":{"$oid":"5a2df49998a51900047b1828"},"data":[{"condition":"highB","internal_node_id":"0.0-0.0","time_elapsed":6015,"trial_index":0,"trial_type":"survey-multi-choice","responses":"{\"Q0\":\"I consent to participate\"}","rt":5944},{"condition":"highB","internal_node_id":"0.0-1.0","time_elapsed":9795,"trial_index":1,"trial_type":"instructions","rt":2774,"view_history":"[{\"page_index\":0,\"viewing_time\":2772}]"},{"condition":"highB","internal_node_id":"0.0-2.0-4.0","time_elapsed":23298,"trial_index":2,"trial_type":"survey-likert","responses":"{\"Q0\":\"1\",\"Q1\":\"3\",\"Q2\":\"1\",\"Q3\":\"1\",\"Q4\":\"2\",\"Q5\":\"1\",\"Q6\":\"2\"}","rt":12468},{"condition":"highB","internal_node_id":"0.0-2.0-3.0","time_elapsed":56549,"trial_index":3,"trial_type":"survey-likert","responses":"{\"Q0\":\"1\",\"Q1\":\"4\",\"Q2\":\"1\",\"Q3\":\"0\",\"Q4\":\"0\",\"Q5\":\"3\",\"Q6\":\"2\"}","rt":32221},{"condition":"highB","internal_node_id":"0.0-2.0-2.0","time_elapsed":68923,"trial_index":4,"trial_type":"survey-likert","responses":"{\"Q0\":\"0\",\"Q1\":\"4\",\"Q2\":\"2\",\"Q3\":\"0\",\"Q4\":\"0\",\"Q5\":\"4\",\"Q6\":\"2\"}","rt":11328},{"condition":"highB","internal_node_id":"0.0-2.0-8.0","time_elapsed":81811,"trial_index":5,"trial_type":"survey-likert","responses":"{\"Q0\":\"0\",\"Q1\":\"4\",\"Q2\":\"1\",\"Q3\":\"1\",\"Q4\":\"0\",\"Q5\":\"4\",\"Q6\":\"2\"}","rt":11847},{"condition":"highB","internal_node_id":"0.0-2.0-0.0","time_elapsed":95439,"trial_index":6,"trial_type":"survey-likert","responses":"{\"Q0\":\"3\",\"Q1\":\"1\",\"Q2\":\"3\",\"Q3\":\"2\",\"Q4\":\"3\",\"Q5\":\"1\",\"Q6\":\"2\"}","rt":12596},{"condition":"highB","internal_node_id":"0.0-2.0-6.0","time_elapsed":105538,"trial_index":7,"trial_type":"survey-likert","responses":"{\"Q0\":\"1\",\"Q1\":\"1\",\"Q2\":\"2\",\"Q3\":\"1\",\"Q4\":\"2\",\"Q5\":\"1\",\"Q6\":\"3\"}","rt":9068},{"condition":"highB","internal_node_id":"0.0-2.0-7.0","time_elapsed":117747,"trial_index":8,"trial_type":"survey-likert","responses":"{\"Q0\":\"3\",\"Q1\":\"1\",\"Q2\":\"3\",\"Q3\":\"3\",\"Q4\":\"2\",\"Q5\":\"1\",\"Q6\":\"3\"}","rt":11170},{"condition":"highB","internal_node_id":"0.0-2.0-9.0","time_elapsed":128731,"trial_index":9,"trial_type":"survey-likert","responses":"{\"Q0\":\"0\",\"Q1\":\"4\",\"Q2\":\"1\",\"Q3\":\"1\",\"Q4\":\"0\",\"Q5\":\"3\",\"Q6\":\"4\"}","rt":9941},{"condition":"highB","internal_node_id":"0.0-2.0-5.0","time_elapsed":146213,"trial_index":10,"trial_type":"survey-likert","responses":"{\"Q0\":\"1\",\"Q1\":\"2\",\"Q2\":\"1\",\"Q3\":\"0\",\"Q4\":\"0\",\"Q5\":\"4\",\"Q6\":\"3\"}","rt":16440},{"condition":"highB","internal_node_id":"0.0-2.0-1.0","time_elapsed":156034,"trial_index":11,"trial_type":"survey-likert","responses":"{\"Q0\":\"3\",\"Q1\":\"1\",\"Q2\":\"3\",\"Q3\":\"2\",\"Q4\":\"2\",\"Q5\":\"1\",\"Q6\":\"3\"}","rt":8775},{"condition":"highB","internal_node_id":"0.0-3.0","time_elapsed":158782,"trial_index":12,"trial_type":"text","key_press":87,"rt":1744}],"__v":0}
{"_id":{"$oid":"5a2df4fb98a51900047b1829"},"data":[{"condition":"highB","internal_node_id":"0.0-0.0","time_elapsed":13484,"trial_index":0,"trial_type":"survey-multi-choice","responses":"{\"Q0\":\"I consent to participate\"}","rt":13476},{"condition":"highB","internal_node_id":"0.0-1.0","time_elapsed":18329,"trial_index":1,"trial_type":"instructions","rt":3842,"view_history":"[{\"page_index\":0,\"viewing_time\":3841}]"},{"condition":"highB","internal_node_id":"0.0-2.0-3.0","time_elapsed":53409,"trial_index":2,"trial_type":"survey-likert","responses":"{\"Q0\":\"3\",\"Q1\":\"3\",\"Q2\":\"1\",\"Q3\":\"1\",\"Q4\":\"1\",\"Q5\":\"0\",\"Q6\":\"0\"}","rt":34066},{"condition":"highB","internal_node_id":"0.0-2.0-5.0","time_elapsed":77718,"trial_index":3,"trial_type":"survey-likert","responses":"{\"Q0\":\"1\",\"Q1\":\"0\",\"Q2\":\"4\",\"Q3\":\"1\",\"Q4\":\"3\",\"Q5\":\"0\",\"Q6\":\"0\"}","rt":23301},{"condition":"highB","internal_node_id":"0.0-2.0-0.0","time_elapsed":101759,"trial_index":4,"trial_type":"survey-likert","responses":"{\"Q0\":\"0\",\"Q1\":\"1\",\"Q2\":\"2\",\"Q3\":\"2\",\"Q4\":\"1\",\"Q5\":\"2\",\"Q6\":\"1\"}","rt":23034},{"condition":"highB","internal_node_id":"0.0-2.0-9.0","time_elapsed":132756,"trial_index":5,"trial_type":"survey-likert","responses":"{\"Q0\":\"0\",\"Q1\":\"0\",\"Q2\":\"3\",\"Q3\":\"0\",\"Q4\":\"2\",\"Q5\":\"0\",\"Q6\":\"0\"}","rt":29989},{"condition":"highB","internal_node_id":"0.0-2.0-1.0","time_elapsed":154534,"trial_index":6,"trial_type":"survey-likert","responses":"{\"Q0\":\"1\",\"Q1\":\"2\",\"Q2\":\"2\",\"Q3\":\"1\",\"Q4\":\"1\",\"Q5\":\"0\",\"Q6\":\"1\"}","rt":20771},{"condition":"highB","internal_node_id":"0.0-2.0-4.0","time_elapsed":177575,"trial_index":7,"trial_type":"survey-likert","responses":"{\"Q0\":\"0\",\"Q1\":\"1\",\"Q2\":\"1\",\"Q3\":\"1\",\"Q4\":\"1\",\"Q5\":\"0\",\"Q6\":\"0\"}","rt":22035},{"condition":"highB","internal_node_id":"0.0-2.0-8.0","time_elapsed":194102,"trial_index":8,"trial_type":"survey-likert","responses":"{\"Q0\":\"0\",\"Q1\":\"0\",\"Q2\":\"1\",\"Q3\":\"2\",\"Q4\":\"1\",\"Q5\":\"1\",\"Q6\":\"0\"}","rt":15518},{"condition":"highB","internal_node_id":"0.0-2.0-7.0","time_elapsed":218489,"trial_index":9,"trial_type":"survey-likert","responses":"{\"Q0\":\"0\",\"Q1\":\"0\",\"Q2\":\"3\",\"Q3\":\"1\",\"Q4\":\"2\",\"Q5\":\"1\",\"Q6\":\"0\"}","rt":23380},{"condition":"highB","internal_node_id":"0.0-2.0-6.0","time_elapsed":235629,"trial_index":10,"trial_type":"survey-likert","responses":"{\"Q0\":\"0\",\"Q1\":\"1\",\"Q2\":\"2\",\"Q3\":\"1\",\"Q4\":\"1\",\"Q5\":\"0\",\"Q6\":\"0\"}","rt":16133},{"condition":"highB","internal_node_id":"0.0-2.0-2.0","time_elapsed":256320,"trial_index":11,"trial_type":"survey-likert","responses":"{\"Q0\":\"0\",\"Q1\":\"1\",\"Q2\":\"2\",\"Q3\":\"2\",\"Q4\":\"0\",\"Q5\":\"0\",\"Q6\":\"0\"}","rt":19684},{"condition":"highB","internal_node_id":"0.0-3.0","time_elapsed":258366,"trial_index":12,"trial_type":"text","key_press":32,"rt":1044}],"__v":0}
{"_id":{"$oid":"5a2df4ff98a51900047b182a"},"data":[{"condition":"highB","internal_node_id":"0.0-0.0","time_elapsed":7169,"trial_index":0,"trial_type":"survey-multi-choice","responses":"{\"Q0\":\"I consent to participate\"}","rt":7141},{"condition":"highB","internal_node_id":"0.0-1.0","time_elapsed":12349,"trial_index":1,"trial_type":"instructions","rt":4175,"view_history":"[{\"page_index\":0,\"viewing_time\":4174}]"},{"condition":"highB","internal_node_id":"0.0-2.0-6.0","time_elapsed":35084,"trial_index":2,"trial_type":"survey-likert","responses":"{\"Q0\":\"2\",\"Q1\":\"3\",\"Q2\":\"3\",\"Q3\":\"3\",\"Q4\":\"1\",\"Q5\":\"2\",\"Q6\":\"2\"}","rt":21713},{"condition":"highB","internal_node_id":"0.0-2.0-7.0","time_elapsed":53281,"trial_index":3,"trial_type":"survey-likert","responses":"{\"Q0\":\"1\",\"Q1\":\"1\",\"Q2\":\"1\",\"Q3\":\"1\",\"Q4\":\"2\",\"Q5\":\"1\",\"Q6\":\"3\"}","rt":17176},{"condition":"highB","internal_node_id":"0.0-2.0-5.0","time_elapsed":72181,"trial_index":4,"trial_type":"survey-likert","responses":"{\"Q0\":\"1\",\"Q1\":\"2\",\"Q2\":\"1\",\"Q3\":\"2\",\"Q4\":\"1\",\"Q5\":\"1\",\"Q6\":\"2\"}","rt":17867},{"condition":"highB","internal_node_id":"0.0-2.0-4.0","time_elapsed":91385,"trial_index":5,"trial_type":"survey-likert","responses":"{\"Q0\":\"0\",\"Q1\":\"0\",\"Q2\":\"1\",\"Q3\":\"2\",\"Q4\":\"1\",\"Q5\":\"1\",\"Q6\":\"2\"}","rt":18173},{"condition":"highB","internal_node_id":"0.0-2.0-1.0","time_elapsed":114788,"trial_index":6,"trial_type":"survey-likert","responses":"{\"Q0\":\"3\",\"Q1\":\"3\",\"Q2\":\"1\",\"Q3\":\"2\",\"Q4\":\"3\",\"Q5\":\"1\",\"Q6\":\"1\"}","rt":22366},{"condition":"highB","internal_node_id":"0.0-2.0-0.0","time_elapsed":131653,"trial_index":7,"trial_type":"survey-likert","responses":"{\"Q0\":\"1\",\"Q1\":\"1\",\"Q2\":\"1\",\"Q3\":\"2\",\"Q4\":\"1\",\"Q5\":\"1\",\"Q6\":\"1\"}","rt":15839},{"condition":"highB","internal_node_id":"0.0-2.0-3.0","time_elapsed":155599,"trial_index":8,"trial_type":"survey-likert","responses":"{\"Q0\":\"1\",\"Q1\":\"1\",\"Q2\":\"3\",\"Q3\":\"2\",\"Q4\":\"0\",\"Q5\":\"2\",\"Q6\":\"1\"}","rt":22913},{"condition":"highB","internal_node_id":"0.0-2.0-2.0","time_elapsed":203816,"trial_index":9,"trial_type":"survey-likert","responses":"{\"Q0\":\"1\",\"Q1\":\"1\",\"Q2\":\"2\",\"Q3\":\"1\",\"Q4\":\"1\",\"Q5\":\"1\",\"Q6\":\"1\"}","rt":47194},{"condition":"highB","internal_node_id":"0.0-2.0-9.0","time_elapsed":222606,"trial_index":10,"trial_type":"survey-likert","responses":"{\"Q0\":\"1\",\"Q1\":\"1\",\"Q2\":\"1\",\"Q3\":\"2\",\"Q4\":\"1\",\"Q5\":\"1\",\"Q6\":\"2\"}","rt":17755},{"condition":"highB","internal_node_id":"0.0-2.0-8.0","time_elapsed":246483,"trial_index":11,"trial_type":"survey-likert","responses":"{\"Q0\":\"1\",\"Q1\":\"1\",\"Q2\":\"3\",\"Q3\":\"1\",\"Q4\":\"0\",\"Q5\":\"2\",\"Q6\":\"0\"}","rt":22846},{"condition":"highB","internal_node_id":"0.0-3.0","time_elapsed":249206,"trial_index":12,"trial_type":"text","key_press":72,"rt":1714}],"__v":0}
{"_id":{"$oid":"5a2df51b98a51900047b182b"},"data":[{"condition":"highA","internal_node_id":"0.0-0.0","time_elapsed":29571,"trial_index":0,"trial_type":"survey-multi-choice","responses":"{\"Q0\":\"I consent to participate\"}","rt":29564},{"condition":"highA","internal_node_id":"0.0-1.0","time_elapsed":33209,"trial_index":1,"trial_type":"instructions","rt":2637,"view_history":"[{\"page_index\":0,\"viewing_time\":2636}]"},{"condition":"highA","internal_node_id":"0.0-2.0-5.0","time_elapsed":62998,"trial_index":2,"trial_type":"survey-likert","responses":"{\"Q0\":\"2\",\"Q1\":\"2\",\"Q2\":\"2\",\"Q3\":\"3\",\"Q4\":\"1\",\"Q5\":\"3\",\"Q6\":\"1\"}","rt":28786},{"condition":"highA","internal_node_id":"0.0-2.0-7.0","time_elapsed":82356,"trial_index":3,"trial_type":"survey-likert","responses":"{\"Q0\":\"3\",\"Q1\":\"3\",\"Q2\":\"3\",\"Q3\":\"4\",\"Q4\":\"2\",\"Q5\":\"3\",\"Q6\":\"1\"}","rt":18353},{"condition":"highA","internal_node_id":"0.0-2.0-3.0","time_elapsed":113154,"trial_index":4,"trial_type":"survey-likert","responses":"{\"Q0\":\"1\",\"Q1\":\"2\",\"Q2\":\"1\",\"Q3\":\"2\",\"Q4\":\"1\",\"Q5\":\"2\",\"Q6\":\"1\"}","rt":29795},{"condition":"highA","internal_node_id":"0.0-2.0-6.0","time_elapsed":130343,"trial_index":5,"trial_type":"survey-likert","responses":"{\"Q0\":\"1\",\"Q1\":\"3\",\"Q2\":\"2\",\"Q3\":\"2\",\"Q4\":\"1\",\"Q5\":\"2\",\"Q6\":\"1\"}","rt":16185},{"condition":"highA","internal_node_id":"0.0-2.0-9.0","time_elapsed":159222,"trial_index":6,"trial_type":"survey-likert","responses":"{\"Q0\":\"3\",\"Q1\":\"1\",\"Q2\":\"3\",\"Q3\":\"4\",\"Q4\":\"1\",\"Q5\":\"3\",\"Q6\":\"1\"}","rt":27433},{"condition":"highA","internal_node_id":"0.0-2.0-8.0","time_elapsed":180999,"trial_index":7,"trial_type":"survey-likert","responses":"{\"Q0\":\"0\",\"Q1\":\"1\",\"Q2\":\"2\",\"Q3\":\"2\",\"Q4\":\"0\",\"Q5\":\"1\",\"Q6\":\"0\"}","rt":20774},{"condition":"highA","internal_node_id":"0.0-2.0-1.0","time_elapsed":202641,"trial_index":8,"trial_type":"survey-likert","responses":"{\"Q0\":\"3\",\"Q1\":\"3\",\"Q2\":\"2\",\"Q3\":\"3\",\"Q4\":\"0\",\"Q5\":\"3\",\"Q6\":\"1\"}","rt":20639},{"condition":"highA","internal_node_id":"0.0-2.0-0.0","time_elapsed":240447,"trial_index":9,"trial_type":"survey-likert","responses":"{\"Q0\":\"3\",\"Q1\":\"3\",\"Q2\":\"3\",\"Q3\":\"3\",\"Q4\":\"1\",\"Q5\":\"3\",\"Q6\":\"1\"}","rt":36803},{"condition":"highA","internal_node_id":"0.0-2.0-2.0","time_elapsed":275316,"trial_index":10,"trial_type":"survey-likert","responses":"{\"Q0\":\"2\",\"Q1\":\"1\",\"Q2\":\"2\",\"Q3\":\"2\",\"Q4\":\"1\",\"Q5\":\"2\",\"Q6\":\"1\"}","rt":33866},{"condition":"highA","internal_node_id":"0.0-2.0-4.0","time_elapsed":294196,"trial_index":11,"trial_type":"survey-likert","responses":"{\"Q0\":\"3\",\"Q1\":\"2\",\"Q2\":\"3\",\"Q3\":\"3\",\"Q4\":\"2\",\"Q5\":\"3\",\"Q6\":\"1\"}","rt":17877},{"condition":"highA","internal_node_id":"0.0-3.0","time_elapsed":297336,"trial_index":12,"trial_type":"text","key_press":67,"rt":2138}],"__v":0}
{"_id":{"$oid":"5a2df56298a51900047b182c"},"data":[{"condition":"highA","internal_node_id":"0.0-0.0","time_elapsed":22836,"trial_index":0,"trial_type":"survey-multi-choice","responses":"{\"Q0\":\"I consent to participate\"}","rt":22791},{"condition":"highA","internal_node_id":"0.0-1.0","time_elapsed":29053,"trial_index":1,"trial_type":"instructions","rt":5206,"view_history":"[{\"page_index\":0,\"viewing_time\":5203}]"},{"condition":"highA","internal_node_id":"0.0-2.0-7.0","time_elapsed":105702,"trial_index":2,"trial_type":"survey-likert","responses":"{\"Q0\":\"2\",\"Q1\":\"0\",\"Q2\":\"3\",\"Q3\":\"0\",\"Q4\":\"4\",\"Q5\":\"3\",\"Q6\":\"3\"}","rt":75611},{"condition":"highA","internal_node_id":"0.0-2.0-2.0","time_elapsed":139480,"trial_index":3,"trial_type":"survey-likert","responses":"{\"Q0\":\"2\",\"Q1\":\"2\",\"Q2\":\"0\",\"Q3\":\"3\",\"Q4\":\"2\",\"Q5\":\"1\",\"Q6\":\"2\"}","rt":32740},{"condition":"highA","internal_node_id":"0.0-2.0-1.0","time_elapsed":180626,"trial_index":4,"trial_type":"survey-likert","responses":"{\"Q0\":\"1\",\"Q1\":\"1\",\"Q2\":\"0\",\"Q3\":\"4\",\"Q4\":\"3\",\"Q5\":\"3\",\"Q6\":\"3\"}","rt":40101},{"condition":"highA","internal_node_id":"0.0-2.0-4.0","time_elapsed":208632,"trial_index":5,"trial_type":"survey-likert","responses":"{\"Q0\":\"1\",\"Q1\":\"1\",\"Q2\":\"1\",\"Q3\":\"1\",\"Q4\":\"1\",\"Q5\":\"2\",\"Q6\":\"2\"}","rt":26968},{"condition":"highA","internal_node_id":"0.0-2.0-8.0","time_elapsed":236478,"trial_index":6,"trial_type":"survey-likert","responses":"{\"Q0\":\"0\",\"Q1\":\"0\",\"Q2\":\"0\",\"Q3\":\"0\",\"Q4\":\"2\",\"Q5\":\"2\",\"Q6\":\"2\"}","rt":26823},{"condition":"highA","internal_node_id":"0.0-2.0-6.0","time_elapsed":259271,"trial_index":7,"trial_type":"survey-likert","responses":"{\"Q0\":\"1\",\"Q1\":\"0\",\"Q2\":\"0\",\"Q3\":\"1\",\"Q4\":\"1\",\"Q5\":\"2\",\"Q6\":\"2\"}","rt":21772},{"condition":"highA","internal_node_id":"0.0-2.0-0.0","time_elapsed":283064,"trial_index":8,"trial_type":"survey-likert","responses":"{\"Q0\":\"1\",\"Q1\":\"1\",\"Q2\":\"1\",\"Q3\":\"3\",\"Q4\":\"2\",\"Q5\":\"2\",\"Q6\":\"2\"}","rt":22736},{"condition":"highA","internal_node_id":"0.0-2.0-9.0","time_elapsed":300997,"trial_index":9,"trial_type":"survey-likert","responses":"{\"Q0\":\"0\",\"Q1\":\"0\",\"Q2\":\"0\",\"Q3\":\"2\",\"Q4\":\"2\",\"Q5\":\"2\",\"Q6\":\"2\"}","rt":16906},{"condition":"highA","internal_node_id":"0.0-2.0-3.0","time_elapsed":346364,"trial_index":10,"trial_type":"survey-likert","responses":"{\"Q0\":\"0\",\"Q1\":\"0\",\"Q2\":\"0\",\"Q3\":\"0\",\"Q4\":\"0\",\"Q5\":\"4\",\"Q6\":\"4\"}","rt":44332},{"condition":"highA","internal_node_id":"0.0-2.0-5.0","time_elapsed":363805,"trial_index":11,"trial_type":"survey-likert","responses":"{\"Q0\":\"0\",\"Q1\":\"0\",\"Q2\":\"0\",\"Q3\":\"0\",\"Q4\":\"0\",\"Q5\":\"3\",\"Q6\":\"3\"}","rt":16319},{"condition":"highA","internal_node_id":"0.0-3.0","time_elapsed":367896,"trial_index":12,"trial_type":"text","key_press":32,"rt":3079}],"__v":0}
{"_id":{"$oid":"5a2df56c98a51900047b182d"},"data":[{"condition":"highB","internal_node_id":"0.0-0.0","time_elapsed":19496,"trial_index":0,"trial_type":"survey-multi-choice","responses":"{\"Q0\":\"I consent to participate\"}","rt":19479},{"condition":"highB","internal_node_id":"0.0-1.0","time_elapsed":27257,"trial_index":1,"trial_type":"instructions","rt":6759,"view_history":"[{\"page_index\":0,\"viewing_time\":6758}]"},{"condition":"highB","internal_node_id":"0.0-2.0-9.0","time_elapsed":91278,"trial_index":2,"trial_type":"survey-likert","responses":"{\"Q0\":\"4\",\"Q1\":\"1\",\"Q2\":\"0\",\"Q3\":\"3\",\"Q4\":\"3\",\"Q5\":\"4\",\"Q6\":\"2\"}","rt":63010},{"condition":"highB","internal_node_id":"0.0-2.0-0.0","time_elapsed":122787,"trial_index":3,"trial_type":"survey-likert","responses":"{\"Q0\":\"2\",\"Q1\":\"2\",\"Q2\":\"2\",\"Q3\":\"1\",\"Q4\":\"2\",\"Q5\":\"3\",\"Q6\":\"3\"}","rt":30501},{"condition":"highB","internal_node_id":"0.0-2.0-8.0","time_elapsed":159848,"trial_index":4,"trial_type":"survey-likert","responses":"{\"Q0\":\"2\",\"Q1\":\"3\",\"Q2\":\"2\",\"Q3\":\"2\",\"Q4\":\"2\",\"Q5\":\"3\",\"Q6\":\"2\"}","rt":36053},{"condition":"highB","internal_node_id":"0.0-2.0-6.0","time_elapsed":185998,"trial_index":5,"trial_type":"survey-likert","responses":"{\"Q0\":\"3\",\"Q1\":\"3\",\"Q2\":\"1\",\"Q3\":\"2\",\"Q4\":\"3\",\"Q5\":\"3\",\"Q6\":\"3\"}","rt":25142},{"condition":"highB","internal_node_id":"0.0-2.0-7.0","time_elapsed":218962,"trial_index":6,"trial_type":"survey-likert","responses":"{\"Q0\":\"3\",\"Q1\":\"1\",\"Q2\":\"0\",\"Q3\":\"1\",\"Q4\":\"3\",\"Q5\":\"3\",\"Q6\":\"2\"}","rt":31956},{"condition":"highB","internal_node_id":"0.0-2.0-3.0","time_elapsed":245235,"trial_index":7,"trial_type":"survey-likert","responses":"{\"Q0\":\"2\",\"Q1\":\"2\",\"Q2\":\"2\",\"Q3\":\"2\",\"Q4\":\"2\",\"Q5\":\"3\",\"Q6\":\"1\"}","rt":25265},{"condition":"highB","internal_node_id":"0.0-2.0-2.0","time_elapsed":275258,"trial_index":8,"trial_type":"survey-likert","responses":"{\"Q0\":\"2\",\"Q1\":\"1\",\"Q2\":\"1\",\"Q3\":\"1\",\"Q4\":\"2\",\"Q5\":\"1\",\"Q6\":\"1\"}","rt":29015},{"condition":"highB","internal_node_id":"0.0-2.0-4.0","time_elapsed":302784,"trial_index":9,"trial_type":"survey-likert","responses":"{\"Q0\":\"3\",\"Q1\":\"3\",\"Q2\":\"1\",\"Q3\":\"1\",\"Q4\":\"2\",\"Q5\":\"2\",\"Q6\":\"3\"}","rt":26517},{"condition":"highB","internal_node_id":"0.0-2.0-5.0","time_elapsed":335520,"trial_index":10,"trial_type":"survey-likert","responses":"{\"Q0\":\"3\",\"Q1\":\"1\",\"Q2\":\"1\",\"Q3\":\"1\",\"Q4\":\"1\",\"Q5\":\"3\",\"Q6\":\"1\"}","rt":31731},{"condition":"highB","internal_node_id":"0.0-2.0-1.0","time_elapsed":368702,"trial_index":11,"trial_type":"survey-likert","responses":"{\"Q0\":\"2\",\"Q1\":\"1\",\"Q2\":\"1\",\"Q3\":\"1\",\"Q4\":\"3\",\"Q5\":\"2\",\"Q6\":\"1\"}","rt":32175},{"condition":"highB","internal_node_id":"0.0-3.0","time_elapsed":371809,"trial_index":12,"trial_type":"text","key_press":32,"rt":2104}],"__v":0}
{"_id":{"$oid":"5a2df58698a51900047b182e"},"data":[{"condition":"highB","internal_node_id":"0.0-0.0","time_elapsed":15157,"trial_index":0,"trial_type":"survey-multi-choice","responses":"{\"Q0\":\"I consent to participate\"}","rt":15003},{"condition":"highB","internal_node_id":"0.0-1.0","time_elapsed":22943,"trial_index":1,"trial_type":"instructions","rt":6782,"view_history":"[{\"page_index\":0,\"viewing_time\":6778}]"},{"condition":"highB","internal_node_id":"0.0-2.0-0.0","time_elapsed":60296,"trial_index":2,"trial_type":"survey-likert","responses":"{\"Q0\":\"2\",\"Q1\":\"2\",\"Q2\":\"1\",\"Q3\":\"0\",\"Q4\":\"2\",\"Q5\":\"1\",\"Q6\":\"0\"}","rt":36285},{"condition":"highB","internal_node_id":"0.0-2.0-3.0","time_elapsed":110076,"trial_index":3,"trial_type":"survey-likert","responses":"{\"Q0\":\"0\",\"Q1\":\"1\",\"Q2\":\"3\",\"Q3\":\"0\",\"Q4\":\"1\",\"Q5\":\"3\",\"Q6\":\"2\"}","rt":48755},{"condition":"highB","internal_node_id":"0.0-2.0-2.0","time_elapsed":139957,"trial_index":4,"trial_type":"survey-likert","responses":"{\"Q0\":\"2\",\"Q1\":\"2\",\"Q2\":\"3\",\"Q3\":\"0\",\"Q4\":\"0\",\"Q5\":\"4\",\"Q6\":\"3\"}","rt":28860},{"condition":"highB","internal_node_id":"0.0-2.0-6.0","time_elapsed":165501,"trial_index":5,"trial_type":"survey-likert","responses":"{\"Q0\":\"3\",\"Q1\":\"2\",\"Q2\":\"3\",\"Q3\":\"3\",\"Q4\":\"1\",\"Q5\":\"3\",\"Q6\":\"3\"}","rt":24519},{"condition":"highB","internal_node_id":"0.0-2.0-8.0","time_elapsed":220140,"trial_index":6,"trial_type":"survey-likert","responses":"{\"Q0\":\"2\",\"Q1\":\"2\",\"Q2\":\"4\",\"Q3\":\"2\",\"Q4\":\"1\",\"Q5\":\"3\",\"Q6\":\"3\"}","rt":53615},{"condition":"highB","internal_node_id":"0.0-2.0-7.0","time_elapsed":261692,"trial_index":7,"trial_type":"survey-likert","responses":"{\"Q0\":\"3\",\"Q1\":\"1\",\"Q2\":\"3\",\"Q3\":\"3\",\"Q4\":\"2\",\"Q5\":\"3\",\"Q6\":\"3\"}","rt":40528},{"condition":"highB","internal_node_id":"0.0-2.0-5.0","time_elapsed":288937,"trial_index":8,"trial_type":"survey-likert","responses":"{\"Q0\":\"2\",\"Q1\":\"1\",\"Q2\":\"3\",\"Q3\":\"3\",\"Q4\":\"1\",\"Q5\":\"3\",\"Q6\":\"3\"}","rt":26218},{"condition":"highB","internal_node_id":"0.0-2.0-1.0","time_elapsed":314470,"trial_index":9,"trial_type":"survey-likert","responses":"{\"Q0\":\"2\",\"Q1\":\"2\",\"Q2\":\"2\",\"Q3\":\"2\",\"Q4\":\"3\",\"Q5\":\"2\",\"Q6\":\"2\"}","rt":24512},{"condition":"highB","internal_node_id":"0.0-2.0-9.0","time_elapsed":338964,"trial_index":10,"trial_type":"survey-likert","responses":"{\"Q0\":\"2\",\"Q1\":\"2\",\"Q2\":\"4\",\"Q3\":\"0\",\"Q4\":\"0\",\"Q5\":\"4\",\"Q6\":\"2\"}","rt":23464},{"condition":"highB","internal_node_id":"0.0-2.0-4.0","time_elapsed":373662,"trial_index":11,"trial_type":"survey-likert","responses":"{\"Q0\":\"3\",\"Q1\":\"2\",\"Q2\":\"2\",\"Q3\":\"3\",\"Q4\":\"2\",\"Q5\":\"3\",\"Q6\":\"4\"}","rt":33660},{"condition":"highB","internal_node_id":"0.0-3.0","time_elapsed":376739,"trial_index":12,"trial_type":"text","key_press":32,"rt":2074}],"__v":0}
{"_id":{"$oid":"5a2df58898a51900047b182f"},"data":[{"condition":"highB","internal_node_id":"0.0-0.0","time_elapsed":12832,"trial_index":0,"trial_type":"survey-multi-choice","responses":"{\"Q0\":\"I consent to participate\"}","rt":12819},{"condition":"highB","internal_node_id":"0.0-1.0","time_elapsed":22035,"trial_index":1,"trial_type":"instructions","rt":8192,"view_history":"[{\"page_index\":0,\"viewing_time\":8192}]"},{"condition":"highB","internal_node_id":"0.0-2.0-9.0","time_elapsed":65207,"trial_index":2,"trial_type":"survey-likert","responses":"{\"Q0\":\"1\",\"Q1\":\"0\",\"Q2\":\"0\",\"Q3\":\"2\",\"Q4\":\"1\",\"Q5\":\"2\",\"Q6\":\"2\"}","rt":42157},{"condition":"highB","internal_node_id":"0.0-2.0-5.0","time_elapsed":114026,"trial_index":3,"trial_type":"survey-likert","responses":"{\"Q0\":\"0\",\"Q1\":\"3\",\"Q2\":\"0\",\"Q3\":\"4\",\"Q4\":\"0\",\"Q5\":\"2\",\"Q6\":\"1\"}","rt":47809},{"condition":"highB","internal_node_id":"0.0-2.0-1.0","time_elapsed":145328,"trial_index":4,"trial_type":"survey-likert","responses":"{\"Q0\":\"2\",\"Q1\":\"4\",\"Q2\":\"0\",\"Q3\":\"3\",\"Q4\":\"0\",\"Q5\":\"2\",\"Q6\":\"2\"}","rt":30292},{"condition":"highB","internal_node_id":"0.0-2.0-3.0","time_elapsed":188453,"trial_index":5,"trial_type":"survey-likert","responses":"{\"Q0\":\"0\",\"Q1\":\"0\",\"Q2\":\"0\",\"Q3\":\"1\",\"Q4\":\"0\",\"Q5\":\"1\",\"Q6\":\"0\"}","rt":42115},{"condition":"highB","internal_node_id":"0.0-2.0-8.0","time_elapsed":239824,"trial_index":6,"trial_type":"survey-likert","responses":"{\"Q0\":\"1\",\"Q1\":\"0\",\"Q2\":\"0\",\"Q3\":\"0\",\"Q4\":\"3\",\"Q5\":\"0\",\"Q6\":\"1\"}","rt":50351},{"condition":"highB","internal_node_id":"0.0-2.0-7.0","time_elapsed":282408,"trial_index":7,"trial_type":"survey-likert","responses":"{\"Q0\":\"0\",\"Q1\":\"2\",\"Q2\":\"0\",\"Q3\":\"2\",\"Q4\":\"0\",\"Q5\":\"0\",\"Q6\":\"0\"}","rt":41565},{"condition":"highB","internal_node_id":"0.0-2.0-2.0","time_elapsed":310940,"trial_index":8,"trial_type":"survey-likert","responses":"{\"Q0\":\"3\",\"Q1\":\"1\",\"Q2\":\"0\",\"Q3\":\"0\",\"Q4\":\"4\",\"Q5\":\"0\",\"Q6\":\"2\"}","rt":27512},{"condition":"highB","internal_node_id":"0.0-2.0-0.0","time_elapsed":355056,"trial_index":9,"trial_type":"survey-likert","responses":"{\"Q0\":\"1\",\"Q1\":\"4\",\"Q2\":\"0\",\"Q3\":\"3\",\"Q4\":\"0\",\"Q5\":\"3\",\"Q6\":\"2\"}","rt":43105},{"condition":"highB","internal_node_id":"0.0-2.0-6.0","time_elapsed":379988,"trial_index":10,"trial_type":"survey-likert","responses":"{\"Q0\":\"2\",\"Q1\":\"1\",\"Q2\":\"0\",\"Q3\":\"2\",\"Q4\":\"0\",\"Q5\":\"2\",\"Q6\":\"0\"}","rt":23916},{"condition":"highB","internal_node_id":"0.0-2.0-4.0","time_elapsed":401680,"trial_index":11,"trial_type":"survey-likert","responses":"{\"Q0\":\"2\",\"Q1\":\"2\",\"Q2\":\"0\",\"Q3\":\"0\",\"Q4\":\"1\",\"Q5\":\"1\",\"Q6\":\"2\"}","rt":20681},{"condition":"highB","internal_node_id":"0.0-3.0","time_elapsed":405915,"trial_index":12,"trial_type":"text","key_press":32,"rt":3227}],"__v":0}
{"_id":{"$oid":"5a2df59398a51900047b1830"},"data":[{"condition":"highA","internal_node_id":"0.0-0.0","time_elapsed":20842,"trial_index":0,"trial_type":"survey-multi-choice","responses":"{\"Q0\":\"I consent to participate\"}","rt":20807},{"condition":"highA","internal_node_id":"0.0-1.0","time_elapsed":31650,"trial_index":1,"trial_type":"instructions","rt":9803,"view_history":"[{\"page_index\":0,\"viewing_time\":9800}]"},{"condition":"highA","internal_node_id":"0.0-2.0-3.0","time_elapsed":72845,"trial_index":2,"trial_type":"survey-likert","responses":"{\"Q0\":\"4\",\"Q1\":\"3\",\"Q2\":\"1\",\"Q3\":\"3\",\"Q4\":\"0\",\"Q5\":\"4\",\"Q6\":\"3\"}","rt":40176},{"condition":"highA","internal_node_id":"0.0-2.0-1.0","time_elapsed":114804,"trial_index":3,"trial_type":"survey-likert","responses":"{\"Q0\":\"3\",\"Q1\":\"3\",\"Q2\":\"1\",\"Q3\":\"2\",\"Q4\":\"1\",\"Q5\":\"3\",\"Q6\":\"1\"}","rt":40946},{"condition":"highA","internal_node_id":"0.0-2.0-0.0","time_elapsed":180777,"trial_index":4,"trial_type":"survey-likert","responses":"{\"Q0\":\"4\",\"Q1\":\"2\",\"Q2\":\"0\",\"Q3\":\"1\",\"Q4\":\"3\",\"Q5\":\"4\",\"Q6\":\"0\"}","rt":64943},{"condition":"highA","internal_node_id":"0.0-2.0-5.0","time_elapsed":212993,"trial_index":5,"trial_type":"survey-likert","responses":"{\"Q0\":\"3\",\"Q1\":\"2\",\"Q2\":\"1\",\"Q3\":\"2\",\"Q4\":\"1\",\"Q5\":\"3\",\"Q6\":\"1\"}","rt":31197},{"condition":"highA","internal_node_id":"0.0-2.0-9.0","time_elapsed":243811,"trial_index":6,"trial_type":"survey-likert","responses":"{\"Q0\":\"3\",\"Q1\":\"2\",\"Q2\":\"0\",\"Q3\":\"1\",\"Q4\":\"2\",\"Q5\":\"3\",\"Q6\":\"0\"}","rt":28942},{"condition":"highA","internal_node_id":"0.0-2.0-8.0","time_elapsed":273981,"trial_index":7,"trial_type":"survey-likert","responses":"{\"Q0\":\"2\",\"Q1\":\"2\",\"Q2\":\"1\",\"Q3\":\"0\",\"Q4\":\"0\",\"Q5\":\"2\",\"Q6\":\"0\"}","rt":29157},{"condition":"highA","internal_node_id":"0.0-2.0-7.0","time_elapsed":313557,"trial_index":8,"trial_type":"survey-likert","responses":"{\"Q0\":\"3\",\"Q1\":\"1\",\"Q2\":\"0\",\"Q3\":\"1\",\"Q4\":\"0\",\"Q5\":\"3\",\"Q6\":\"0\"}","rt":38558},{"condition":"highA","internal_node_id":"0.0-2.0-6.0","time_elapsed":340210,"trial_index":9,"trial_type":"survey-likert","responses":"{\"Q0\":\"2\",\"Q1\":\"2\",\"Q2\":\"1\",\"Q3\":\"1\",\"Q4\":\"2\",\"Q5\":\"2\",\"Q6\":\"0\"}","rt":25636},{"condition":"highA","internal_node_id":"0.0-2.0-2.0","time_elapsed":366923,"trial_index":10,"trial_type":"survey-likert","responses":"{\"Q0\":\"4\",\"Q1\":\"2\",\"Q2\":\"1\",\"Q3\":\"3\",\"Q4\":\"1\",\"Q5\":\"3\",\"Q6\":\"2\"}","rt":25687},{"condition":"highA","internal_node_id":"0.0-2.0-4.0","time_elapsed":408510,"trial_index":11,"trial_type":"survey-likert","responses":"{\"Q0\":\"3\",\"Q1\":\"2\",\"Q2\":\"2\",\"Q3\":\"1\",\"Q4\":\"3\",\"Q5\":\"3\",\"Q6\":\"1\"}","rt":40556},{"condition":"highA","internal_node_id":"0.0-3.0","time_elapsed":421081,"trial_index":12,"trial_type":"text","key_press":32,"rt":11226}],"__v":0}
{"_id":{"$oid":"5a2df5af98a51900047b1831"},"data":[{"condition":"highA","internal_node_id":"0.0-0.0","time_elapsed":9747,"trial_index":0,"trial_type":"survey-multi-choice","responses":"{\"Q0\":\"I consent to participate\"}","rt":9734},{"condition":"highA","internal_node_id":"0.0-1.0","time_elapsed":40616,"trial_index":1,"trial_type":"instructions","rt":29867,"view_history":"[{\"page_index\":0,\"viewing_time\":29866}]"},{"condition":"highA","internal_node_id":"0.0-2.0-6.0","time_elapsed":77603,"trial_index":2,"trial_type":"survey-likert","responses":"{\"Q0\":\"0\",\"Q1\":\"3\",\"Q2\":\"3\",\"Q3\":\"0\",\"Q4\":\"3\",\"Q5\":\"2\",\"Q6\":\"0\"}","rt":35976},{"condition":"highA","internal_node_id":"0.0-2.0-1.0","time_elapsed":114703,"trial_index":3,"trial_type":"survey-likert","responses":"{\"Q0\":\"1\",\"Q1\":\"0\",\"Q2\":\"4\",\"Q3\":\"2\",\"Q4\":\"1\",\"Q5\":\"2\",\"Q6\":\"0\"}","rt":36088},{"condition":"highA","internal_node_id":"0.0-2.0-9.0","time_elapsed":279216,"trial_index":4,"trial_type":"survey-likert","responses":"{\"Q0\":\"1\",\"Q1\":\"1\",\"Q2\":\"3\",\"Q3\":\"3\",\"Q4\":\"4\",\"Q5\":\"3\",\"Q6\":\"0\"}","rt":163501},{"condition":"highA","internal_node_id":"0.0-2.0-5.0","time_elapsed":304152,"trial_index":5,"trial_type":"survey-likert","responses":"{\"Q0\":\"0\",\"Q1\":\"1\",\"Q2\":\"3\",\"Q3\":\"2\",\"Q4\":\"0\",\"Q5\":\"0\",\"Q6\":\"1\"}","rt":23925},{"condition":"highA","internal_node_id":"0.0-2.0-3.0","time_elapsed":326685,"trial_index":6,"trial_type":"survey-likert","responses":"{\"Q0\":\"1\",\"Q1\":\"0\",\"Q2\":\"3\",\"Q3\":\"3\",\"Q4\":\"1\",\"Q5\":\"1\",\"Q6\":\"1\"}","rt":21522},{"condition":"highA","internal_node_id":"0.0-2.0-0.0","time_elapsed":349525,"trial_index":7,"trial_type":"survey-likert","responses":"{\"Q0\":\"0\",\"Q1\":\"0\",\"Q2\":\"3\",\"Q3\":\"3\",\"Q4\":\"1\",\"Q5\":\"1\",\"Q6\":\"2\"}","rt":21831},{"condition":"highA","internal_node_id":"0.0-2.0-7.0","time_elapsed":373899,"trial_index":8,"trial_type":"survey-likert","responses":"{\"Q0\":\"1\",\"Q1\":\"0\",\"Q2\":\"2\",\"Q3\":\"1\",\"Q4\":\"1\",\"Q5\":\"1\",\"Q6\":\"1\"}","rt":23366},{"condition":"highA","internal_node_id":"0.0-2.0-4.0","time_elapsed":405029,"trial_index":9,"trial_type":"survey-likert","responses":"{\"Q0\":\"1\",\"Q1\":\"0\",\"Q2\":\"2\",\"Q3\":\"2\",\"Q4\":\"1\",\"Q5\":\"1\",\"Q6\":\"2\"}","rt":30119},{"condition":"highA","internal_node_id":"0.0-2.0-8.0","time_elapsed":424592,"trial_index":10,"trial_type":"survey-likert","responses":"{\"Q0\":\"0\",\"Q1\":\"0\",\"Q2\":\"2\",\"Q3\":\"1\",\"Q4\":\"2\",\"Q5\":\"1\",\"Q6\":\"0\"}","rt":18555},{"condition":"highA","internal_node_id":"0.0-2.0-2.0","time_elapsed":444060,"trial_index":11,"trial_type":"survey-likert","responses":"{\"Q0\":\"2\",\"Q1\":\"0\",\"Q2\":\"3\",\"Q3\":\"3\",\"Q4\":\"1\",\"Q5\":\"1\",\"Q6\":\"2\"}","rt":18458},{"condition":"highA","internal_node_id":"0.0-3.0","time_elapsed":446725,"trial_index":12,"trial_type":"text","key_press":32,"rt":1662}],"__v":0}
{"_id":{"$oid":"5a2df60298a51900047b1832"},"data":[{"condition":"highB","internal_node_id":"0.0-0.0","time_elapsed":16322,"trial_index":0,"trial_type":"survey-multi-choice","responses":"{\"Q0\":\"I consent to participate\"}","rt":16267},{"condition":"highB","internal_node_id":"0.0-1.0","time_elapsed":24987,"trial_index":1,"trial_type":"instructions","rt":7662,"view_history":"[{\"page_index\":0,\"viewing_time\":7661}]"},{"condition":"highB","internal_node_id":"0.0-2.0-4.0","time_elapsed":66609,"trial_index":2,"trial_type":"survey-likert","responses":"{\"Q0\":\"0\",\"Q1\":\"2\",\"Q2\":\"0\",\"Q3\":\"2\",\"Q4\":\"0\",\"Q5\":\"2\",\"Q6\":\"0\"}","rt":40589},{"condition":"highB","internal_node_id":"0.0-2.0-7.0","time_elapsed":110005,"trial_index":3,"trial_type":"survey-likert","responses":"{\"Q0\":\"0\",\"Q1\":\"2\",\"Q2\":\"0\",\"Q3\":\"0\",\"Q4\":\"0\",\"Q5\":\"3\",\"Q6\":\"2\"}","rt":42364},{"condition":"highB","internal_node_id":"0.0-2.0-1.0","time_elapsed":157000,"trial_index":4,"trial_type":"survey-likert","responses":"{\"Q0\":\"0\",\"Q1\":\"4\",\"Q2\":\"0\",\"Q3\":\"4\",\"Q4\":\"0\",\"Q5\":\"0\",\"Q6\":\"0\"}","rt":45970},{"condition":"highB","internal_node_id":"0.0-2.0-2.0","time_elapsed":183905,"trial_index":5,"trial_type":"survey-likert","responses":"{\"Q0\":\"2\",\"Q1\":\"2\",\"Q2\":\"0\",\"Q3\":\"4\",\"Q4\":\"0\",\"Q5\":\"2\",\"Q6\":\"0\"}","rt":25894},{"condition":"highB","internal_node_id":"0.0-2.0-3.0","time_elapsed":215325,"trial_index":6,"trial_type":"survey-likert","responses":"{\"Q0\":\"2\",\"Q1\":\"2\",\"Q2\":\"0\",\"Q3\":\"1\",\"Q4\":\"0\",\"Q5\":\"0\",\"Q6\":\"0\"}","rt":30400},{"condition":"highB","internal_node_id":"0.0-2.0-6.0","time_elapsed":247934,"trial_index":7,"trial_type":"survey-likert","responses":"{\"Q0\":\"0\",\"Q1\":\"4\",\"Q2\":\"0\",\"Q3\":\"2\",\"Q4\":\"0\",\"Q5\":\"0\",\"Q6\":\"0\"}","rt":31595},{"condition":"highB","internal_node_id":"0.0-2.0-0.0","time_elapsed":271692,"trial_index":8,"trial_type":"survey-likert","responses":"{\"Q0\":\"0\",\"Q1\":\"3\",\"Q2\":\"0\",\"Q3\":\"3\",\"Q4\":\"0\",\"Q5\":\"1\",\"Q6\":\"0\"}","rt":22747},{"condition":"highB","internal_node_id":"0.0-2.0-8.0","time_elapsed":292476,"trial_index":9,"trial_type":"survey-likert","responses":"{\"Q0\":\"0\",\"Q1\":\"4\",\"Q2\":\"0\",\"Q3\":\"4\",\"Q4\":\"0\",\"Q5\":\"0\",\"Q6\":\"0\"}","rt":19769},{"condition":"highB","internal_node_id":"0.0-2.0-9.0","time_elapsed":318543,"trial_index":10,"trial_type":"survey-likert","responses":"{\"Q0\":\"0\",\"Q1\":\"3\",\"Q2\":\"0\",\"Q3\":\"3\",\"Q4\":\"0\",\"Q5\":\"2\",\"Q6\":\"0\"}","rt":25052},{"condition":"highB","internal_node_id":"0.0-2.0-5.0","time_elapsed":349571,"trial_index":11,"trial_type":"survey-likert","responses":"{\"Q0\":\"2\",\"Q1\":\"3\",\"Q2\":\"0\",\"Q3\":\"2\",\"Q4\":\"0\",\"Q5\":\"1\",\"Q6\":\"0\"}","rt":30012},{"condition":"highB","internal_node_id":"0.0-3.0","time_elapsed":352354,"trial_index":12,"trial_type":"text","key_press":32,"rt":1778}],"__v":0}
{"_id":{"$oid":"5a2df65898a51900047b1833"},"data":[{"condition":"highA","internal_node_id":"0.0-0.0","time_elapsed":298283,"trial_index":0,"trial_type":"survey-multi-choice","responses":"{\"Q0\":\"I consent to participate\"}","rt":298256},{"condition":"highA","internal_node_id":"0.0-1.0","time_elapsed":308613,"trial_index":1,"trial_type":"instructions","rt":9329,"view_history":"[{\"page_index\":0,\"viewing_time\":9328}]"},{"condition":"highA","internal_node_id":"0.0-2.0-3.0","time_elapsed":341904,"trial_index":2,"trial_type":"survey-likert","responses":"{\"Q0\":\"0\",\"Q1\":\"0\",\"Q2\":\"0\",\"Q3\":\"1\",\"Q4\":\"3\",\"Q5\":\"1\",\"Q6\":\"0\"}","rt":32278},{"condition":"highA","internal_node_id":"0.0-2.0-7.0","time_elapsed":372983,"trial_index":3,"trial_type":"survey-likert","responses":"{\"Q0\":\"1\",\"Q1\":\"1\",\"Q2\":\"0\",\"Q3\":\"0\",\"Q4\":\"1\",\"Q5\":\"0\",\"Q6\":\"0\"}","rt":30070},{"condition":"highA","internal_node_id":"0.0-2.0-1.0","time_elapsed":422623,"trial_index":4,"trial_type":"survey-likert","responses":"{\"Q0\":\"0\",\"Q1\":\"2\",\"Q2\":\"1\",\"Q3\":\"1\",\"Q4\":\"2\",\"Q5\":\"1\",\"Q6\":\"0\"}","rt":48627},{"condition":"highA","internal_node_id":"0.0-2.0-4.0","time_elapsed":454660,"trial_index":5,"trial_type":"survey-likert","responses":"{\"Q0\":\"2\",\"Q1\":\"0\",\"Q2\":\"1\",\"Q3\":\"1\",\"Q4\":\"3\",\"Q5\":\"3\",\"Q6\":\"0\"}","rt":31028},{"condition":"highA","internal_node_id":"0.0-2.0-5.0","time_elapsed":480020,"trial_index":6,"trial_type":"survey-likert","responses":"{\"Q0\":\"0\",\"Q1\":\"0\",\"Q2\":\"0\",\"Q3\":\"0\",\"Q4\":\"2\",\"Q5\":\"3\",\"Q6\":\"0\"}","rt":24338},{"condition":"highA","internal_node_id":"0.0-2.0-2.0","time_elapsed":504864,"trial_index":7,"trial_type":"survey-likert","responses":"{\"Q0\":\"1\",\"Q1\":\"2\",\"Q2\":\"0\",\"Q3\":\"1\",\"Q4\":\"1\",\"Q5\":\"1\",\"Q6\":\"0\"}","rt":23835},{"condition":"highA","internal_node_id":"0.0-2.0-8.0","time_elapsed":537519,"trial_index":8,"trial_type":"survey-likert","responses":"{\"Q0\":\"0\",\"Q1\":\"3\",\"Q2\":\"0\",\"Q3\":\"1\",\"Q4\":\"1\",\"Q5\":\"0\",\"Q6\":\"0\"}","rt":31646},{"condition":"highA","internal_node_id":"0.0-2.0-9.0","time_elapsed":559366,"trial_index":9,"trial_type":"survey-likert","responses":"{\"Q0\":\"0\",\"Q1\":\"0\",\"Q2\":\"0\",\"Q3\":\"0\",\"Q4\":\"4\",\"Q5\":\"4\",\"Q6\":\"0\"}","rt":20837},{"condition":"highA","internal_node_id":"0.0-2.0-0.0","time_elapsed":598952,"trial_index":10,"trial_type":"survey-likert","responses":"{\"Q0\":\"1\",\"Q1\":\"1\",\"Q2\":\"1\",\"Q3\":\"3\",\"Q4\":\"3\",\"Q5\":\"2\",\"Q6\":\"0\"}","rt":38576},{"condition":"highA","internal_node_id":"0.0-2.0-6.0","time_elapsed":617001,"trial_index":11,"trial_type":"survey-likert","responses":"{\"Q0\":\"1\",\"Q1\":\"1\",\"Q2\":\"0\",\"Q3\":\"1\",\"Q4\":\"3\",\"Q5\":\"2\",\"Q6\":\"0\"}","rt":17032},{"condition":"highA","internal_node_id":"0.0-3.0","time_elapsed":619933,"trial_index":12,"trial_type":"text","key_press":66,"rt":1931}],"__v":0}
{"_id":{"$oid":"5a2df67598a51900047b1834"},"data":[{"condition":"highA","internal_node_id":"0.0-0.0","time_elapsed":9226,"trial_index":0,"trial_type":"survey-multi-choice","responses":"{\"Q0\":\"I consent to participate\"}","rt":9218},{"condition":"highA","internal_node_id":"0.0-1.0","time_elapsed":16977,"trial_index":1,"trial_type":"instructions","rt":6744,"view_history":"[{\"page_index\":0,\"viewing_time\":6744}]"},{"condition":"highA","internal_node_id":"0.0-2.0-3.0","time_elapsed":180000,"trial_index":2,"trial_type":"survey-likert","responses":"{\"Q0\":\"0\",\"Q1\":\"0\",\"Q2\":\"0\",\"Q3\":\"0\",\"Q4\":\"4\",\"Q5\":\"1\",\"Q6\":\"1\"}","rt":162018},{"condition":"highA","internal_node_id":"0.0-2.0-6.0","time_elapsed":245541,"trial_index":3,"trial_type":"survey-likert","responses":"{\"Q0\":\"0\",\"Q1\":\"1\",\"Q2\":\"0\",\"Q3\":\"0\",\"Q4\":\"1\",\"Q5\":\"0\",\"Q6\":\"2\"}","rt":64530},{"condition":"highA","internal_node_id":"0.0-2.0-9.0","time_elapsed":292397,"trial_index":4,"trial_type":"survey-likert","responses":"{\"Q0\":\"0\",\"Q1\":\"3\",\"Q2\":\"0\",\"Q3\":\"0\",\"Q4\":\"1\",\"Q5\":\"0\",\"Q6\":\"1\"}","rt":45853},{"condition":"highA","internal_node_id":"0.0-2.0-0.0","time_elapsed":336502,"trial_index":5,"trial_type":"survey-likert","responses":"{\"Q0\":\"1\",\"Q1\":\"0\",\"Q2\":\"0\",\"Q3\":\"0\",\"Q4\":\"2\",\"Q5\":\"1\",\"Q6\":\"0\"}","rt":43097},{"condition":"highA","internal_node_id":"0.0-2.0-8.0","time_elapsed":385775,"trial_index":6,"trial_type":"survey-likert","responses":"{\"Q0\":\"1\",\"Q1\":\"2\",\"Q2\":\"0\",\"Q3\":\"0\",\"Q4\":\"1\",\"Q5\":\"1\",\"Q6\":\"2\"}","rt":48258},{"condition":"highA","internal_node_id":"0.0-2.0-5.0","time_elapsed":453413,"trial_index":7,"trial_type":"survey-likert","responses":"{\"Q0\":\"2\",\"Q1\":\"4\",\"Q2\":\"1\",\"Q3\":\"2\",\"Q4\":\"0\",\"Q5\":\"1\",\"Q6\":\"3\"}","rt":66635},{"condition":"highA","internal_node_id":"0.0-2.0-2.0","time_elapsed":495630,"trial_index":8,"trial_type":"survey-likert","responses":"{\"Q0\":\"0\",\"Q1\":\"1\",\"Q2\":\"0\",\"Q3\":\"1\",\"Q4\":\"1\",\"Q5\":\"2\",\"Q6\":\"1\"}","rt":41209},{"condition":"highA","internal_node_id":"0.0-2.0-4.0","time_elapsed":533941,"trial_index":9,"trial_type":"survey-likert","responses":"{\"Q0\":\"0\",\"Q1\":\"2\",\"Q2\":\"0\",\"Q3\":\"0\",\"Q4\":\"1\",\"Q5\":\"0\",\"Q6\":\"1\"}","rt":37300},{"condition":"highA","internal_node_id":"0.0-2.0-1.0","time_elapsed":581357,"trial_index":10,"trial_type":"survey-likert","responses":"{\"Q0\":\"0\",\"Q1\":\"4\",\"Q2\":\"0\",\"Q3\":\"0\",\"Q4\":\"0\",\"Q5\":\"0\",\"Q6\":\"4\"}","rt":46412},{"condition":"highA","internal_node_id":"0.0-2.0-7.0","time_elapsed":637646,"trial_index":11,"trial_type":"survey-likert","responses":"{\"Q0\":\"0\",\"Q1\":\"4\",\"Q2\":\"0\",\"Q3\":\"1\",\"Q4\":\"1\",\"Q5\":\"1\",\"Q6\":\"4\"}","rt":55285},{"condition":"highA","internal_node_id":"0.0-3.0","time_elapsed":641707,"trial_index":12,"trial_type":"text","key_press":13,"rt":3061}],"__v":0}
{"_id":{"$oid":"5a2df67998a51900047b1835"},"data":[{"condition":"highA","internal_node_id":"0.0-0.0","time_elapsed":78871,"trial_index":0,"trial_type":"survey-multi-choice","responses":"{\"Q0\":\"I consent to participate\"}","rt":78857},{"condition":"highA","internal_node_id":"0.0-1.0","time_elapsed":94037,"trial_index":1,"trial_type":"instructions","rt":14161,"view_history":"[{\"page_index\":0,\"viewing_time\":14161}]"},{"condition":"highA","internal_node_id":"0.0-2.0-9.0","time_elapsed":135638,"trial_index":2,"trial_type":"survey-likert","responses":"{\"Q0\":\"0\",\"Q1\":\"2\",\"Q2\":\"3\",\"Q3\":\"1\",\"Q4\":\"0\",\"Q5\":\"1\",\"Q6\":\"0\"}","rt":40587},{"condition":"highA","internal_node_id":"0.0-2.0-2.0","time_elapsed":175109,"trial_index":3,"trial_type":"survey-likert","responses":"{\"Q0\":\"3\",\"Q1\":\"3\",\"Q2\":\"3\",\"Q3\":\"2\",\"Q4\":\"0\",\"Q5\":\"1\",\"Q6\":\"2\"}","rt":38461},{"condition":"highA","internal_node_id":"0.0-2.0-1.0","time_elapsed":213380,"trial_index":4,"trial_type":"survey-likert","responses":"{\"Q0\":\"3\",\"Q1\":\"3\",\"Q2\":\"2\",\"Q3\":\"3\",\"Q4\":\"0\",\"Q5\":\"2\",\"Q6\":\"3\"}","rt":37261},{"condition":"highA","internal_node_id":"0.0-2.0-7.0","time_elapsed":252532,"trial_index":5,"trial_type":"survey-likert","responses":"{\"Q0\":\"3\",\"Q1\":\"2\",\"Q2\":\"3\",\"Q3\":\"3\",\"Q4\":\"0\",\"Q5\":\"2\",\"Q6\":\"2\"}","rt":38143},{"condition":"highA","internal_node_id":"0.0-2.0-4.0","time_elapsed":283052,"trial_index":6,"trial_type":"survey-likert","responses":"{\"Q0\":\"3\",\"Q1\":\"2\",\"Q2\":\"4\",\"Q3\":\"3\",\"Q4\":\"0\",\"Q5\":\"2\",\"Q6\":\"2\"}","rt":29510},{"condition":"highA","internal_node_id":"0.0-2.0-8.0","time_elapsed":324667,"trial_index":7,"trial_type":"survey-likert","responses":"{\"Q0\":\"1\",\"Q1\":\"3\",\"Q2\":\"3\",\"Q3\":\"3\",\"Q4\":\"2\",\"Q5\":\"1\",\"Q6\":\"3\"}","rt":40608},{"condition":"highA","internal_node_id":"0.0-2.0-5.0","time_elapsed":517738,"trial_index":8,"trial_type":"survey-likert","responses":"{\"Q0\":\"1\",\"Q1\":\"3\",\"Q2\":\"3\",\"Q3\":\"3\",\"Q4\":\"3\",\"Q5\":\"1\",\"Q6\":\"3\"}","rt":192061},{"condition":"highA","internal_node_id":"0.0-2.0-6.0","time_elapsed":544402,"trial_index":9,"trial_type":"survey-likert","responses":"{\"Q0\":\"0\",\"Q1\":\"2\",\"Q2\":\"1\",\"Q3\":\"0\",\"Q4\":\"0\",\"Q5\":\"0\",\"Q6\":\"0\"}","rt":25655},{"condition":"highA","internal_node_id":"0.0-2.0-3.0","time_elapsed":571737,"trial_index":10,"trial_type":"survey-likert","responses":"{\"Q0\":\"2\",\"Q1\":\"3\",\"Q2\":\"2\",\"Q3\":\"3\",\"Q4\":\"0\",\"Q5\":\"1\",\"Q6\":\"1\"}","rt":26327},{"condition":"highA","internal_node_id":"0.0-2.0-0.0","time_elapsed":590585,"trial_index":11,"trial_type":"survey-likert","responses":"{\"Q0\":\"2\",\"Q1\":\"3\",\"Q2\":\"2\",\"Q3\":\"3\",\"Q4\":\"0\",\"Q5\":\"1\",\"Q6\":\"2\"}","rt":17837},{"condition":"highA","internal_node_id":"0.0-3.0","time_elapsed":595209,"trial_index":12,"trial_type":"text","key_press":90,"rt":3621}],"__v":0}
{"_id":{"$oid":"5a2df6a898a51900047b1836"},"data":[{"condition":"highA","internal_node_id":"0.0-0.0","time_elapsed":9662,"trial_index":0,"trial_type":"survey-multi-choice","responses":"{\"Q0\":\"I consent to participate\"}","rt":9648},{"condition":"highA","internal_node_id":"0.0-1.0","time_elapsed":16396,"trial_index":1,"trial_type":"instructions","rt":5729,"view_history":"[{\"page_index\":0,\"viewing_time\":5729}]"},{"condition":"highA","internal_node_id":"0.0-2.0-2.0","time_elapsed":67231,"trial_index":2,"trial_type":"survey-likert","responses":"{\"Q0\":\"0\",\"Q1\":\"1\",\"Q2\":\"2\",\"Q3\":\"0\",\"Q4\":\"2\",\"Q5\":\"3\",\"Q6\":\"0\"}","rt":49815},{"condition":"highA","internal_node_id":"0.0-2.0-5.0","time_elapsed":115204,"trial_index":3,"trial_type":"survey-likert","responses":"{\"Q0\":\"2\",\"Q1\":\"3\",\"Q2\":\"2\",\"Q3\":\"1\",\"Q4\":\"3\",\"Q5\":\"0\",\"Q6\":\"0\"}","rt":46962},{"condition":"highA","internal_node_id":"0.0-2.0-3.0","time_elapsed":162813,"trial_index":4,"trial_type":"survey-likert","responses":"{\"Q0\":\"2\",\"Q1\":\"3\",\"Q2\":\"3\",\"Q3\":\"1\",\"Q4\":\"3\",\"Q5\":\"1\",\"Q6\":\"1\"}","rt":46597},{"condition":"highA","internal_node_id":"0.0-2.0-4.0","time_elapsed":213660,"trial_index":5,"trial_type":"survey-likert","responses":"{\"Q0\":\"2\",\"Q1\":\"4\",\"Q2\":\"3\",\"Q3\":\"3\",\"Q4\":\"3\",\"Q5\":\"0\",\"Q6\":\"0\"}","rt":49836},{"condition":"highA","internal_node_id":"0.0-2.0-1.0","time_elapsed":258533,"trial_index":6,"trial_type":"survey-likert","responses":"{\"Q0\":\"1\",\"Q1\":\"2\",\"Q2\":\"2\",\"Q3\":\"3\",\"Q4\":\"2\",\"Q5\":\"2\",\"Q6\":\"1\"}","rt":43859},{"condition":"highA","internal_node_id":"0.0-2.0-8.0","time_elapsed":353077,"trial_index":7,"trial_type":"survey-likert","responses":"{\"Q0\":\"0\",\"Q1\":\"4\",\"Q2\":\"4\",\"Q3\":\"2\",\"Q4\":\"4\",\"Q5\":\"0\",\"Q6\":\"3\"}","rt":93531},{"condition":"highA","internal_node_id":"0.0-2.0-0.0","time_elapsed":381332,"trial_index":8,"trial_type":"survey-likert","responses":"{\"Q0\":\"1\",\"Q1\":\"4\",\"Q2\":\"2\",\"Q3\":\"2\",\"Q4\":\"2\",\"Q5\":\"1\",\"Q6\":\"0\"}","rt":27246},{"condition":"highA","internal_node_id":"0.0-2.0-9.0","time_elapsed":458692,"trial_index":9,"trial_type":"survey-likert","responses":"{\"Q0\":\"3\",\"Q1\":\"2\",\"Q2\":\"3\",\"Q3\":\"3\",\"Q4\":\"3\",\"Q5\":\"2\",\"Q6\":\"0\"}","rt":76347},{"condition":"highA","internal_node_id":"0.0-2.0-6.0","time_elapsed":506869,"trial_index":10,"trial_type":"survey-likert","responses":"{\"Q0\":\"2\",\"Q1\":\"2\",\"Q2\":\"3\",\"Q3\":\"1\",\"Q4\":\"1\",\"Q5\":\"3\",\"Q6\":\"1\"}","rt":47166},{"condition":"highA","internal_node_id":"0.0-2.0-7.0","time_elapsed":542421,"trial_index":11,"trial_type":"survey-likert","responses":"{\"Q0\":\"3\",\"Q1\":\"2\",\"Q2\":\"2\",\"Q3\":\"2\",\"Q4\":\"2\",\"Q5\":\"1\",\"Q6\":\"1\"}","rt":34548},{"condition":"highA","internal_node_id":"0.0-3.0","time_elapsed":546405,"trial_index":12,"trial_type":"text","key_press":70,"rt":2981}],"__v":0}
{"_id":{"$oid":"5a2df6e398a51900047b1837"},"data":[{"condition":"highA","internal_node_id":"0.0-0.0","time_elapsed":11080,"trial_index":0,"trial_type":"survey-multi-choice","responses":"{\"Q0\":\"I consent to participate\"}","rt":11040},{"condition":"highA","internal_node_id":"0.0-1.0","time_elapsed":20404,"trial_index":1,"trial_type":"instructions","rt":8323,"view_history":"[{\"page_index\":0,\"viewing_time\":8322}]"},{"condition":"highA","internal_node_id":"0.0-2.0-6.0","time_elapsed":62551,"trial_index":2,"trial_type":"survey-likert","responses":"{\"Q0\":\"0\",\"Q1\":\"3\",\"Q2\":\"3\",\"Q3\":\"1\",\"Q4\":\"4\",\"Q5\":\"4\",\"Q6\":\"1\"}","rt":41134},{"condition":"highA","internal_node_id":"0.0-2.0-8.0","time_elapsed":96508,"trial_index":3,"trial_type":"survey-likert","responses":"{\"Q0\":\"3\",\"Q1\":\"2\",\"Q2\":\"0\",\"Q3\":\"0\",\"Q4\":\"1\",\"Q5\":\"0\",\"Q6\":\"3\"}","rt":32949},{"condition":"highA","internal_node_id":"0.0-2.0-4.0","time_elapsed":121028,"trial_index":4,"trial_type":"survey-likert","responses":"{\"Q0\":\"4\",\"Q1\":\"2\",\"Q2\":\"0\",\"Q3\":\"0\",\"Q4\":\"1\",\"Q5\":\"4\",\"Q6\":\"0\"}","rt":23511},{"condition":"highA","internal_node_id":"0.0-2.0-1.0","time_elapsed":143076,"trial_index":5,"trial_type":"survey-likert","responses":"{\"Q0\":\"4\",\"Q1\":\"2\",\"Q2\":\"0\",\"Q3\":\"0\",\"Q4\":\"4\",\"Q5\":\"4\",\"Q6\":\"1\"}","rt":21040},{"condition":"highA","internal_node_id":"0.0-2.0-9.0","time_elapsed":165973,"trial_index":6,"trial_type":"survey-likert","responses":"{\"Q0\":\"1\",\"Q1\":\"0\",\"Q2\":\"0\",\"Q3\":\"0\",\"Q4\":\"2\",\"Q5\":\"0\",\"Q6\":\"0\"}","rt":21888},{"condition":"highA","internal_node_id":"0.0-2.0-5.0","time_elapsed":186276,"trial_index":7,"trial_type":"survey-likert","responses":"{\"Q0\":\"2\",\"Q1\":\"4\",\"Q2\":\"0\",\"Q3\":\"0\",\"Q4\":\"3\",\"Q5\":\"0\",\"Q6\":\"4\"}","rt":19295},{"condition":"highA","internal_node_id":"0.0-2.0-7.0","time_elapsed":214212,"trial_index":8,"trial_type":"survey-likert","responses":"{\"Q0\":\"3\",\"Q1\":\"3\",\"Q2\":\"0\",\"Q3\":\"0\",\"Q4\":\"2\",\"Q5\":\"4\",\"Q6\":\"3\"}","rt":26927},{"condition":"highA","internal_node_id":"0.0-2.0-2.0","time_elapsed":254300,"trial_index":9,"trial_type":"survey-likert","responses":"{\"Q0\":\"4\",\"Q1\":\"4\",\"Q2\":\"0\",\"Q3\":\"0\",\"Q4\":\"4\",\"Q5\":\"4\",\"Q6\":\"4\"}","rt":39080},{"condition":"highA","internal_node_id":"0.0-2.0-0.0","time_elapsed":275396,"trial_index":10,"trial_type":"survey-likert","responses":"{\"Q0\":\"1\",\"Q1\":\"4\",\"Q2\":\"0\",\"Q3\":\"0\",\"Q4\":\"4\",\"Q5\":\"0\",\"Q6\":\"4\"}","rt":20087},{"condition":"highA","internal_node_id":"0.0-2.0-3.0","time_elapsed":303388,"trial_index":11,"trial_type":"survey-likert","responses":"{\"Q0\":\"4\",\"Q1\":\"2\",\"Q2\":\"0\",\"Q3\":\"0\",\"Q4\":\"4\",\"Q5\":\"4\",\"Q6\":\"2\"}","rt":26982},{"condition":"highA","internal_node_id":"0.0-3.0","time_elapsed":306182,"trial_index":12,"trial_type":"text","key_press":32,"rt":1794}],"__v":0}
{"_id":{"$oid":"5a2df6e398a51900047b1838"},"data":[{"condition":"highA","internal_node_id":"0.0-0.0","time_elapsed":4417,"trial_index":0,"trial_type":"survey-multi-choice","responses":"{\"Q0\":\"I consent to participate\"}","rt":4360},{"condition":"highA","internal_node_id":"0.0-1.0","time_elapsed":9571,"trial_index":1,"trial_type":"instructions","rt":4152,"view_history":"[{\"page_index\":0,\"viewing_time\":4151}]"},{"condition":"highA","internal_node_id":"0.0-2.0-1.0","time_elapsed":42803,"trial_index":2,"trial_type":"survey-likert","responses":"{\"Q0\":\"1\",\"Q1\":\"1\",\"Q2\":\"3\",\"Q3\":\"1\",\"Q4\":\"2\",\"Q5\":\"1\",\"Q6\":\"1\"}","rt":32197},{"condition":"highA","internal_node_id":"0.0-2.0-0.0","time_elapsed":74033,"trial_index":3,"trial_type":"survey-likert","responses":"{\"Q0\":\"3\",\"Q1\":\"2\",\"Q2\":\"1\",\"Q3\":\"1\",\"Q4\":\"1\",\"Q5\":\"1\",\"Q6\":\"1\"}","rt":30201},{"condition":"highA","internal_node_id":"0.0-2.0-6.0","time_elapsed":96469,"trial_index":4,"trial_type":"survey-likert","responses":"{\"Q0\":\"1\",\"Q1\":\"1\",\"Q2\":\"3\",\"Q3\":\"1\",\"Q4\":\"2\",\"Q5\":\"1\",\"Q6\":\"1\"}","rt":21410},{"condition":"highA","internal_node_id":"0.0-2.0-2.0","time_elapsed":112038,"trial_index":5,"trial_type":"survey-likert","responses":"{\"Q0\":\"1\",\"Q1\":\"1\",\"Q2\":\"2\",\"Q3\":\"1\",\"Q4\":\"2\",\"Q5\":\"1\",\"Q6\":\"1\"}","rt":14558},{"condition":"highA","internal_node_id":"0.0-2.0-7.0","time_elapsed":128182,"trial_index":6,"trial_type":"survey-likert","responses":"{\"Q0\":\"2\",\"Q1\":\"1\",\"Q2\":\"2\",\"Q3\":\"1\",\"Q4\":\"2\",\"Q5\":\"1\",\"Q6\":\"1\"}","rt":15133},{"condition":"highA","internal_node_id":"0.0-2.0-8.0","time_elapsed":148950,"trial_index":7,"trial_type":"survey-likert","responses":"{\"Q0\":\"1\",\"Q1\":\"1\",\"Q2\":\"3\",\"Q3\":\"1\",\"Q4\":\"2\",\"Q5\":\"1\",\"Q6\":\"1\"}","rt":19747},{"condition":"highA","internal_node_id":"0.0-2.0-5.0","time_elapsed":165886,"trial_index":8,"trial_type":"survey-likert","responses":"{\"Q0\":\"1\",\"Q1\":\"1\",\"Q2\":\"3\",\"Q3\":\"1\",\"Q4\":\"2\",\"Q5\":\"1\",\"Q6\":\"1\"}","rt":15920},{"condition":"highA","internal_node_id":"0.0-2.0-4.0","time_elapsed":183343,"trial_index":9,"trial_type":"survey-likert","responses":"{\"Q0\":\"2\",\"Q1\":\"2\",\"Q2\":\"1\",\"Q3\":\"1\",\"Q4\":\"1\",\"Q5\":\"1\",\"Q6\":\"1\"}","rt":16442},{"condition":"highA","internal_node_id":"0.0-2.0-3.0","time_elapsed":197777,"trial_index":10,"trial_type":"survey-likert","responses":"{\"Q0\":\"1\",\"Q1\":\"1\",\"Q2\":\"3\",\"Q3\":\"1\",\"Q4\":\"1\",\"Q5\":\"1\",\"Q6\":\"1\"}","rt":13423},{"condition":"highA","internal_node_id":"0.0-2.0-9.0","time_elapsed":214472,"trial_index":11,"trial_type":"survey-likert","responses":"{\"Q0\":\"1\",\"Q1\":\"1\",\"Q2\":\"3\",\"Q3\":\"1\",\"Q4\":\"2\",\"Q5\":\"1\",\"Q6\":\"1\"}","rt":15686},{"condition":"highA","internal_node_id":"0.0-3.0","time_elapsed":217070,"trial_index":12,"trial_type":"text","key_press":32,"rt":1595}],"__v":0}
{"_id":{"$oid":"5a2df70798a51900047b1839"},"data":[{"condition":"highA","internal_node_id":"0.0-0.0","time_elapsed":9027,"trial_index":0,"trial_type":"survey-multi-choice","responses":"{\"Q0\":\"I consent to participate\"}","rt":8962},{"condition":"highA","internal_node_id":"0.0-1.0","time_elapsed":14649,"trial_index":1,"trial_type":"instructions","rt":4617,"view_history":"[{\"page_index\":0,\"viewing_time\":4616}]"},{"condition":"highA","internal_node_id":"0.0-2.0-8.0","time_elapsed":49333,"trial_index":2,"trial_type":"survey-likert","responses":"{\"Q0\":\"4\",\"Q1\":\"0\",\"Q2\":\"3\",\"Q3\":\"3\",\"Q4\":\"2\",\"Q5\":\"4\",\"Q6\":\"0\"}","rt":33638},{"condition":"highA","internal_node_id":"0.0-2.0-7.0","time_elapsed":78191,"trial_index":3,"trial_type":"survey-likert","responses":"{\"Q0\":\"2\",\"Q1\":\"3\",\"Q2\":\"2\",\"Q3\":\"3\",\"Q4\":\"1\",\"Q5\":\"4\",\"Q6\":\"1\"}","rt":27811},{"condition":"highA","internal_node_id":"0.0-2.0-9.0","time_elapsed":110028,"trial_index":4,"trial_type":"survey-likert","responses":"{\"Q0\":\"3\",\"Q1\":\"0\",\"Q2\":\"3\",\"Q3\":\"3\",\"Q4\":\"0\",\"Q5\":\"3\",\"Q6\":\"1\"}","rt":30810},{"condition":"highA","internal_node_id":"0.0-2.0-4.0","time_elapsed":134826,"trial_index":5,"trial_type":"survey-likert","responses":"{\"Q0\":\"3\",\"Q1\":\"0\",\"Q2\":\"2\",\"Q3\":\"3\",\"Q4\":\"2\",\"Q5\":\"3\",\"Q6\":\"0\"}","rt":23761},{"condition":"highA","internal_node_id":"0.0-2.0-2.0","time_elapsed":158381,"trial_index":6,"trial_type":"survey-likert","responses":"{\"Q0\":\"0\",\"Q1\":\"0\",\"Q2\":\"1\",\"Q3\":\"3\",\"Q4\":\"1\",\"Q5\":\"4\",\"Q6\":\"1\"}","rt":22517},{"condition":"highA","internal_node_id":"0.0-2.0-6.0","time_elapsed":189969,"trial_index":7,"trial_type":"survey-likert","responses":"{\"Q0\":\"3\",\"Q1\":\"1\",\"Q2\":\"2\",\"Q3\":\"2\",\"Q4\":\"1\",\"Q5\":\"3\",\"Q6\":\"0\"}","rt":30544},{"condition":"highA","internal_node_id":"0.0-2.0-3.0","time_elapsed":215269,"trial_index":8,"trial_type":"survey-likert","responses":"{\"Q0\":\"4\",\"Q1\":\"0\",\"Q2\":\"2\",\"Q3\":\"2\",\"Q4\":\"1\",\"Q5\":\"3\",\"Q6\":\"1\"}","rt":24255},{"condition":"highA","internal_node_id":"0.0-2.0-1.0","time_elapsed":238745,"trial_index":9,"trial_type":"survey-likert","responses":"{\"Q0\":\"1\",\"Q1\":\"0\",\"Q2\":\"2\",\"Q3\":\"2\",\"Q4\":\"1\",\"Q5\":\"3\",\"Q6\":\"1\"}","rt":22445},{"condition":"highA","internal_node_id":"0.0-2.0-5.0","time_elapsed":276871,"trial_index":10,"trial_type":"survey-likert","responses":"{\"Q0\":\"0\",\"Q1\":\"4\",\"Q2\":\"1\",\"Q3\":\"3\",\"Q4\":\"0\",\"Q5\":\"4\",\"Q6\":\"0\"}","rt":37084},{"condition":"highA","internal_node_id":"0.0-2.0-0.0","time_elapsed":302631,"trial_index":11,"trial_type":"survey-likert","responses":"{\"Q0\":\"1\",\"Q1\":\"0\",\"Q2\":\"0\",\"Q3\":\"2\",\"Q4\":\"0\",\"Q5\":\"3\",\"Q6\":\"1\"}","rt":24717},{"condition":"highA","internal_node_id":"0.0-3.0","time_elapsed":305510,"trial_index":12,"trial_type":"text","key_press":32,"rt":1869}],"__v":0}
{"_id":{"$oid":"5a2df71298a51900047b183a"},"data":[{"condition":"highA","internal_node_id":"0.0-0.0","time_elapsed":10034,"trial_index":0,"trial_type":"survey-multi-choice","responses":"{\"Q0\":\"I consent to participate\"}","rt":10019},{"condition":"highA","internal_node_id":"0.0-1.0","time_elapsed":19591,"trial_index":1,"trial_type":"instructions","rt":8555,"view_history":"[{\"page_index\":0,\"viewing_time\":8554}]"},{"condition":"highA","internal_node_id":"0.0-2.0-2.0","time_elapsed":63316,"trial_index":2,"trial_type":"survey-likert","responses":"{\"Q0\":\"3\",\"Q1\":\"2\",\"Q2\":\"0\",\"Q3\":\"0\",\"Q4\":\"3\",\"Q5\":\"4\",\"Q6\":\"3\"}","rt":42714},{"condition":"highA","internal_node_id":"0.0-2.0-7.0","time_elapsed":102329,"trial_index":3,"trial_type":"survey-likert","responses":"{\"Q0\":\"3\",\"Q1\":\"1\",\"Q2\":\"0\",\"Q3\":\"0\",\"Q4\":\"2\",\"Q5\":\"3\",\"Q6\":\"0\"}","rt":38003},{"condition":"highA","internal_node_id":"0.0-2.0-3.0","time_elapsed":141590,"trial_index":4,"trial_type":"survey-likert","responses":"{\"Q0\":\"2\",\"Q1\":\"0\",\"Q2\":\"2\",\"Q3\":\"0\",\"Q4\":\"2\",\"Q5\":\"4\",\"Q6\":\"2\"}","rt":38252},{"condition":"highA","internal_node_id":"0.0-2.0-4.0","time_elapsed":166956,"trial_index":5,"trial_type":"survey-likert","responses":"{\"Q0\":\"2\",\"Q1\":\"0\",\"Q2\":\"0\",\"Q3\":\"0\",\"Q4\":\"3\",\"Q5\":\"3\",\"Q6\":\"0\"}","rt":24357},{"condition":"highA","internal_node_id":"0.0-2.0-8.0","time_elapsed":202055,"trial_index":6,"trial_type":"survey-likert","responses":"{\"Q0\":\"2\",\"Q1\":\"3\",\"Q2\":\"0\",\"Q3\":\"0\",\"Q4\":\"1\",\"Q5\":\"3\",\"Q6\":\"2\"}","rt":34088},{"condition":"highA","internal_node_id":"0.0-2.0-1.0","time_elapsed":228726,"trial_index":7,"trial_type":"survey-likert","responses":"{\"Q0\":\"3\",\"Q1\":\"0\",\"Q2\":\"4\",\"Q3\":\"0\",\"Q4\":\"4\",\"Q5\":\"4\",\"Q6\":\"0\"}","rt":25661},{"condition":"highA","internal_node_id":"0.0-2.0-6.0","time_elapsed":254627,"trial_index":8,"trial_type":"survey-likert","responses":"{\"Q0\":\"0\",\"Q1\":\"0\",\"Q2\":\"0\",\"Q3\":\"0\",\"Q4\":\"1\",\"Q5\":\"1\",\"Q6\":\"0\"}","rt":24890},{"condition":"highA","internal_node_id":"0.0-2.0-5.0","time_elapsed":306594,"trial_index":9,"trial_type":"survey-likert","responses":"{\"Q0\":\"3\",\"Q1\":\"2\",\"Q2\":\"3\",\"Q3\":\"0\",\"Q4\":\"0\",\"Q5\":\"1\",\"Q6\":\"0\"}","rt":50955},{"condition":"highA","internal_node_id":"0.0-2.0-0.0","time_elapsed":335550,"trial_index":10,"trial_type":"survey-likert","responses":"{\"Q0\":\"2\",\"Q1\":\"1\",\"Q2\":\"0\",\"Q3\":\"0\",\"Q4\":\"0\",\"Q5\":\"1\",\"Q6\":\"1\"}","rt":27946},{"condition":"highA","internal_node_id":"0.0-2.0-9.0","time_elapsed":363989,"trial_index":11,"trial_type":"survey-likert","responses":"{\"Q0\":\"3\",\"Q1\":\"2\",\"Q2\":\"0\",\"Q3\":\"0\",\"Q4\":\"0\",\"Q5\":\"0\",\"Q6\":\"1\"}","rt":27429},{"condition":"highA","internal_node_id":"0.0-3.0","time_elapsed":370632,"trial_index":12,"trial_type":"text","key_press":13,"rt":5641}],"__v":0}
{"_id":{"$oid":"5a2df7bb98a51900047b183b"},"data":[{"condition":"highA","internal_node_id":"0.0-0.0","time_elapsed":7671,"trial_index":0,"trial_type":"survey-multi-choice","responses":"{\"Q0\":\"I consent to participate\"}","rt":7653},{"condition":"highA","internal_node_id":"0.0-1.0","time_elapsed":11882,"trial_index":1,"trial_type":"instructions","rt":3209,"view_history":"[{\"page_index\":0,\"viewing_time\":3208}]"},{"condition":"highA","internal_node_id":"0.0-2.0-3.0","time_elapsed":49270,"trial_index":2,"trial_type":"survey-likert","responses":"{\"Q0\":\"1\",\"Q1\":\"1\",\"Q2\":\"2\",\"Q3\":\"3\",\"Q4\":\"1\",\"Q5\":\"2\",\"Q6\":\"1\"}","rt":36379},{"condition":"highA","internal_node_id":"0.0-2.0-6.0","time_elapsed":79736,"trial_index":3,"trial_type":"survey-likert","responses":"{\"Q0\":\"1\",\"Q1\":\"1\",\"Q2\":\"3\",\"Q3\":\"1\",\"Q4\":\"2\",\"Q5\":\"1\",\"Q6\":\"0\"}","rt":29461},{"condition":"highA","internal_node_id":"0.0-2.0-5.0","time_elapsed":153945,"trial_index":4,"trial_type":"survey-likert","responses":"{\"Q0\":\"4\",\"Q1\":\"3\",\"Q2\":\"1\",\"Q3\":\"3\",\"Q4\":\"3\",\"Q5\":\"4\",\"Q6\":\"2\"}","rt":73196},{"condition":"highA","internal_node_id":"0.0-2.0-0.0","time_elapsed":206562,"trial_index":5,"trial_type":"survey-likert","responses":"{\"Q0\":\"2\",\"Q1\":\"0\",\"Q2\":\"0\",\"Q3\":\"3\",\"Q4\":\"0\",\"Q5\":\"2\",\"Q6\":\"4\"}","rt":51611},{"condition":"highA","internal_node_id":"0.0-2.0-1.0","time_elapsed":265310,"trial_index":6,"trial_type":"survey-likert","responses":"{\"Q0\":\"2\",\"Q1\":\"0\",\"Q2\":\"1\",\"Q3\":\"3\",\"Q4\":\"1\",\"Q5\":\"2\",\"Q6\":\"2\"}","rt":57744},{"condition":"highA","internal_node_id":"0.0-2.0-7.0","time_elapsed":314261,"trial_index":7,"trial_type":"survey-likert","responses":"{\"Q0\":\"4\",\"Q1\":\"0\",\"Q2\":\"0\",\"Q3\":\"3\",\"Q4\":\"2\",\"Q5\":\"4\",\"Q6\":\"2\"}","rt":47943},{"condition":"highA","internal_node_id":"0.0-2.0-8.0","time_elapsed":351344,"trial_index":8,"trial_type":"survey-likert","responses":"{\"Q0\":\"1\",\"Q1\":\"1\",\"Q2\":\"1\",\"Q3\":\"2\",\"Q4\":\"1\",\"Q5\":\"2\",\"Q6\":\"1\"}","rt":36076},{"condition":"highA","internal_node_id":"0.0-2.0-4.0","time_elapsed":369376,"trial_index":9,"trial_type":"survey-likert","responses":"{\"Q0\":\"2\",\"Q1\":\"2\",\"Q2\":\"1\",\"Q3\":\"3\",\"Q4\":\"3\",\"Q5\":\"3\",\"Q6\":\"1\"}","rt":17025},{"condition":"highA","internal_node_id":"0.0-2.0-9.0","time_elapsed":391202,"trial_index":10,"trial_type":"survey-likert","responses":"{\"Q0\":\"1\",\"Q1\":\"0\",\"Q2\":\"1\",\"Q3\":\"3\",\"Q4\":\"3\",\"Q5\":\"2\",\"Q6\":\"3\"}","rt":20818},{"condition":"highA","internal_node_id":"0.0-2.0-2.0","time_elapsed":408547,"trial_index":11,"trial_type":"survey-likert","responses":"{\"Q0\":\"0\",\"Q1\":\"0\",\"Q2\":\"3\",\"Q3\":\"1\",\"Q4\":\"0\",\"Q5\":\"1\",\"Q6\":\"1\"}","rt":16338},{"condition":"highA","internal_node_id":"0.0-3.0","time_elapsed":412632,"trial_index":12,"trial_type":"text","key_press":32,"rt":3082}],"__v":0}
{"_id":{"$oid":"5a2df90298a51900047b183c"},"data":[{"condition":"highB","internal_node_id":"0.0-0.0","time_elapsed":5019,"trial_index":0,"trial_type":"survey-multi-choice","responses":"{\"Q0\":\"I consent to participate\"}","rt":5002},{"condition":"highB","internal_node_id":"0.0-1.0","time_elapsed":42730,"trial_index":1,"trial_type":"instructions","rt":36707,"view_history":"[{\"page_index\":0,\"viewing_time\":36706}]"},{"condition":"highB","internal_node_id":"0.0-2.0-1.0","time_elapsed":89324,"trial_index":2,"trial_type":"survey-likert","responses":"{\"Q0\":\"0\",\"Q1\":\"3\",\"Q2\":\"1\",\"Q3\":\"1\",\"Q4\":\"3\",\"Q5\":\"2\",\"Q6\":\"3\"}","rt":45576},{"condition":"highB","internal_node_id":"0.0-2.0-2.0","time_elapsed":163927,"trial_index":3,"trial_type":"survey-likert","responses":"{\"Q0\":\"1\",\"Q1\":\"1\",\"Q2\":\"2\",\"Q3\":\"2\",\"Q4\":\"3\",\"Q5\":\"4\",\"Q6\":\"1\"}","rt":73585},{"condition":"highB","internal_node_id":"0.0-2.0-9.0","time_elapsed":217014,"trial_index":4,"trial_type":"survey-likert","responses":"{\"Q0\":\"1\",\"Q1\":\"2\",\"Q2\":\"3\",\"Q3\":\"2\",\"Q4\":\"1\",\"Q5\":\"3\",\"Q6\":\"1\"}","rt":52081},{"condition":"highB","internal_node_id":"0.0-2.0-6.0","time_elapsed":245981,"trial_index":5,"trial_type":"survey-likert","responses":"{\"Q0\":\"2\",\"Q1\":\"3\",\"Q2\":\"2\",\"Q3\":\"3\",\"Q4\":\"3\",\"Q5\":\"2\",\"Q6\":\"1\"}","rt":27953},{"condition":"highB","internal_node_id":"0.0-2.0-4.0","time_elapsed":270229,"trial_index":6,"trial_type":"survey-likert","responses":"{\"Q0\":\"2\",\"Q1\":\"3\",\"Q2\":\"1\",\"Q3\":\"1\",\"Q4\":\"2\",\"Q5\":\"3\",\"Q6\":\"2\"}","rt":23234},{"condition":"highB","internal_node_id":"0.0-2.0-8.0","time_elapsed":293053,"trial_index":7,"trial_type":"survey-likert","responses":"{\"Q0\":\"1\",\"Q1\":\"0\",\"Q2\":\"3\",\"Q3\":\"2\",\"Q4\":\"3\",\"Q5\":\"1\",\"Q6\":\"0\"}","rt":21813},{"condition":"highB","internal_node_id":"0.0-2.0-3.0","time_elapsed":906812,"trial_index":8,"trial_type":"survey-likert","responses":"{\"Q0\":\"3\",\"Q1\":\"2\",\"Q2\":\"1\",\"Q3\":\"1\",\"Q4\":\"2\",\"Q5\":\"3\",\"Q6\":\"2\"}","rt":612748},{"condition":"highB","internal_node_id":"0.0-2.0-7.0","time_elapsed":1157197,"trial_index":9,"trial_type":"survey-likert","responses":"{\"Q0\":\"1\",\"Q1\":\"3\",\"Q2\":\"1\",\"Q3\":\"1\",\"Q4\":\"1\",\"Q5\":\"2\",\"Q6\":\"3\"}","rt":249368},{"condition":"highB","internal_node_id":"0.0-2.0-0.0","time_elapsed":1234244,"trial_index":10,"trial_type":"survey-likert","responses":"{\"Q0\":\"2\",\"Q1\":\"3\",\"Q2\":\"1\",\"Q3\":\"2\",\"Q4\":\"4\",\"Q5\":\"3\",\"Q6\":\"1\"}","rt":76041},{"condition":"highB","internal_node_id":"0.0-2.0-5.0","time_elapsed":1259355,"trial_index":11,"trial_type":"survey-likert","responses":"{\"Q0\":\"1\",\"Q1\":\"0\",\"Q2\":\"3\",\"Q3\":\"3\",\"Q4\":\"2\",\"Q5\":\"0\",\"Q6\":\"0\"}","rt":24102},{"condition":"highB","internal_node_id":"0.0-3.0","time_elapsed":1261972,"trial_index":12,"trial_type":"text","key_press":32,"rt":1611}],"__v":0}
{"_id":{"$oid":"5a2dfa8198a51900047b183d"},"data":[{"condition":"highB","internal_node_id":"0.0-0.0","time_elapsed":30653,"trial_index":0,"trial_type":"survey-multi-choice","responses":"{\"Q0\":\"I consent to participate\"}","rt":30645},{"condition":"highB","internal_node_id":"0.0-1.0","time_elapsed":35668,"trial_index":1,"trial_type":"instructions","rt":4010,"view_history":"[{\"page_index\":0,\"viewing_time\":4006}]"},{"condition":"highB","internal_node_id":"0.0-2.0-8.0","time_elapsed":83892,"trial_index":2,"trial_type":"survey-likert","responses":"{\"Q0\":\"0\",\"Q1\":\"1\",\"Q2\":\"2\",\"Q3\":\"2\",\"Q4\":\"3\",\"Q5\":\"1\",\"Q6\":\"0\"}","rt":47219},{"condition":"highB","internal_node_id":"0.0-2.0-9.0","time_elapsed":122271,"trial_index":3,"trial_type":"survey-likert","responses":"{\"Q0\":\"1\",\"Q1\":\"2\",\"Q2\":\"2\",\"Q3\":\"1\",\"Q4\":\"2\",\"Q5\":\"0\",\"Q6\":\"1\"}","rt":37376},{"condition":"highB","internal_node_id":"0.0-2.0-3.0","time_elapsed":148467,"trial_index":4,"trial_type":"survey-likert","responses":"{\"Q0\":\"0\",\"Q1\":\"1\",\"Q2\":\"1\",\"Q3\":\"0\",\"Q4\":\"2\",\"Q5\":\"0\",\"Q6\":\"0\"}","rt":25192},{"condition":"highB","internal_node_id":"0.0-2.0-6.0","time_elapsed":187302,"trial_index":5,"trial_type":"survey-likert","responses":"{\"Q0\":\"0\",\"Q1\":\"1\",\"Q2\":\"1\",\"Q3\":\"0\",\"Q4\":\"4\",\"Q5\":\"1\",\"Q6\":\"0\"}","rt":37831},{"condition":"highB","internal_node_id":"0.0-2.0-1.0","time_elapsed":219655,"trial_index":6,"trial_type":"survey-likert","responses":"{\"Q0\":\"0\",\"Q1\":\"0\",\"Q2\":\"0\",\"Q3\":\"0\",\"Q4\":\"3\",\"Q5\":\"2\",\"Q6\":\"0\"}","rt":31343},{"condition":"highB","internal_node_id":"0.0-2.0-2.0","time_elapsed":246648,"trial_index":7,"trial_type":"survey-likert","responses":"{\"Q0\":\"0\",\"Q1\":\"1\",\"Q2\":\"2\",\"Q3\":\"1\",\"Q4\":\"2\",\"Q5\":\"0\",\"Q6\":\"0\"}","rt":25985},{"condition":"highB","internal_node_id":"0.0-2.0-5.0","time_elapsed":276291,"trial_index":8,"trial_type":"survey-likert","responses":"{\"Q0\":\"0\",\"Q1\":\"0\",\"Q2\":\"2\",\"Q3\":\"2\",\"Q4\":\"3\",\"Q5\":\"1\",\"Q6\":\"0\"}","rt":28637},{"condition":"highB","internal_node_id":"0.0-2.0-7.0","time_elapsed":317302,"trial_index":9,"trial_type":"survey-likert","responses":"{\"Q0\":\"0\",\"Q1\":\"0\",\"Q2\":\"0\",\"Q3\":\"0\",\"Q4\":\"2\",\"Q5\":\"0\",\"Q6\":\"0\"}","rt":40006},{"condition":"highB","internal_node_id":"0.0-2.0-4.0","time_elapsed":354732,"trial_index":10,"trial_type":"survey-likert","responses":"{\"Q0\":\"1\",\"Q1\":\"3\",\"Q2\":\"2\",\"Q3\":\"1\",\"Q4\":\"2\",\"Q5\":\"1\",\"Q6\":\"0\"}","rt":36425},{"condition":"highB","internal_node_id":"0.0-2.0-0.0","time_elapsed":377220,"trial_index":11,"trial_type":"survey-likert","responses":"{\"Q0\":\"0\",\"Q1\":\"0\",\"Q2\":\"1\",\"Q3\":\"1\",\"Q4\":\"2\",\"Q5\":\"0\",\"Q6\":\"0\"}","rt":21485},{"condition":"highB","internal_node_id":"0.0-3.0","time_elapsed":380553,"trial_index":12,"trial_type":"text","key_press":76,"rt":2329}],"__v":0}
{"_id":{"$oid":"5a2dfb1598a51900047b183e"},"data":[{"condition":"highA","internal_node_id":"0.0-0.0","time_elapsed":188864,"trial_index":0,"trial_type":"survey-multi-choice","responses":"{\"Q0\":\"I consent to participate\"}","rt":188857},{"condition":"highA","internal_node_id":"0.0-1.0","time_elapsed":206434,"trial_index":1,"trial_type":"instructions","rt":16568,"view_history":"[{\"page_index\":0,\"viewing_time\":16568}]"},{"condition":"highA","internal_node_id":"0.0-2.0-9.0","time_elapsed":241651,"trial_index":2,"trial_type":"survey-likert","responses":"{\"Q0\":\"1\",\"Q1\":\"0\",\"Q2\":\"1\",\"Q3\":\"0\",\"Q4\":\"0\",\"Q5\":\"2\",\"Q6\":\"0\"}","rt":34208},{"condition":"highA","internal_node_id":"0.0-2.0-3.0","time_elapsed":284778,"trial_index":3,"trial_type":"survey-likert","responses":"{\"Q0\":\"0\",\"Q1\":\"3\",\"Q2\":\"0\",\"Q3\":\"3\",\"Q4\":\"2\",\"Q5\":\"0\",\"Q6\":\"3\"}","rt":42120},{"condition":"highA","internal_node_id":"0.0-2.0-4.0","time_elapsed":538691,"trial_index":4,"trial_type":"survey-likert","responses":"{\"Q0\":\"0\",\"Q1\":\"2\",\"Q2\":\"0\",\"Q3\":\"0\",\"Q4\":\"0\",\"Q5\":\"1\",\"Q6\":\"0\"}","rt":252906},{"condition":"highA","internal_node_id":"0.0-2.0-0.0","time_elapsed":563695,"trial_index":5,"trial_type":"survey-likert","responses":"{\"Q0\":\"1\",\"Q1\":\"3\",\"Q2\":\"1\",\"Q3\":\"0\",\"Q4\":\"3\",\"Q5\":\"2\",\"Q6\":\"0\"}","rt":23995},{"condition":"highA","internal_node_id":"0.0-2.0-8.0","time_elapsed":646546,"trial_index":6,"trial_type":"survey-likert","responses":"{\"Q0\":\"2\",\"Q1\":\"2\",\"Q2\":\"0\",\"Q3\":\"0\",\"Q4\":\"3\",\"Q5\":\"3\",\"Q6\":\"0\"}","rt":81842},{"condition":"highA","internal_node_id":"0.0-2.0-1.0","time_elapsed":670666,"trial_index":7,"trial_type":"survey-likert","responses":"{\"Q0\":\"3\",\"Q1\":\"2\",\"Q2\":\"1\",\"Q3\":\"0\",\"Q4\":\"2\",\"Q5\":\"3\",\"Q6\":\"0\"}","rt":23113},{"condition":"highA","internal_node_id":"0.0-2.0-7.0","time_elapsed":729927,"trial_index":8,"trial_type":"survey-likert","responses":"{\"Q0\":\"4\",\"Q1\":\"4\",\"Q2\":\"0\",\"Q3\":\"0\",\"Q4\":\"3\",\"Q5\":\"3\",\"Q6\":\"3\"}","rt":58251},{"condition":"highA","internal_node_id":"0.0-2.0-5.0","time_elapsed":772924,"trial_index":9,"trial_type":"survey-likert","responses":"{\"Q0\":\"0\",\"Q1\":\"0\",\"Q2\":\"4\",\"Q3\":\"0\",\"Q4\":\"0\",\"Q5\":\"2\",\"Q6\":\"0\"}","rt":41987},{"condition":"highA","internal_node_id":"0.0-2.0-2.0","time_elapsed":808296,"trial_index":10,"trial_type":"survey-likert","responses":"{\"Q0\":\"2\",\"Q1\":\"3\",\"Q2\":\"1\",\"Q3\":\"0\",\"Q4\":\"3\",\"Q5\":\"3\",\"Q6\":\"0\"}","rt":34366},{"condition":"highA","internal_node_id":"0.0-2.0-6.0","time_elapsed":862707,"trial_index":11,"trial_type":"survey-likert","responses":"{\"Q0\":\"4\",\"Q1\":\"4\",\"Q2\":\"0\",\"Q3\":\"0\",\"Q4\":\"2\",\"Q5\":\"3\",\"Q6\":\"3\"}","rt":53402},{"condition":"highA","internal_node_id":"0.0-3.0","time_elapsed":865936,"trial_index":12,"trial_type":"text","key_press":32,"rt":2226}],"__v":0}
{"_id":{"$oid":"5a2dfb8e98a51900047b183f"},"data":[{"condition":"highB","internal_node_id":"0.0-0.0","time_elapsed":3608,"trial_index":0,"trial_type":"survey-multi-choice","responses":"{\"Q0\":\"I consent to participate\"}","rt":3581},{"condition":"highB","internal_node_id":"0.0-1.0","time_elapsed":7001,"trial_index":1,"trial_type":"instructions","rt":2386,"view_history":"[{\"page_index\":0,\"viewing_time\":2384}]"},{"condition":"highB","internal_node_id":"0.0-2.0-5.0","time_elapsed":70866,"trial_index":2,"trial_type":"survey-likert","responses":"{\"Q0\":\"0\",\"Q1\":\"2\",\"Q2\":\"3\",\"Q3\":\"3\",\"Q4\":\"0\",\"Q5\":\"2\",\"Q6\":\"1\"}","rt":62846},{"condition":"highB","internal_node_id":"0.0-2.0-8.0","time_elapsed":166395,"trial_index":3,"trial_type":"survey-likert","responses":"{\"Q0\":\"4\",\"Q1\":\"1\",\"Q2\":\"0\",\"Q3\":\"2\",\"Q4\":\"0\",\"Q5\":\"2\",\"Q6\":\"4\"}","rt":94503},{"condition":"highB","internal_node_id":"0.0-2.0-4.0","time_elapsed":179399,"trial_index":4,"trial_type":"survey-likert","responses":"{\"Q0\":\"0\",\"Q1\":\"1\",\"Q2\":\"0\",\"Q3\":\"3\",\"Q4\":\"3\",\"Q5\":\"2\",\"Q6\":\"1\"}","rt":11990},{"condition":"highB","internal_node_id":"0.0-2.0-3.0","time_elapsed":238268,"trial_index":5,"trial_type":"survey-likert","responses":"{\"Q0\":\"0\",\"Q1\":\"1\",\"Q2\":\"3\",\"Q3\":\"2\",\"Q4\":\"0\",\"Q5\":\"3\",\"Q6\":\"3\"}","rt":57859},{"condition":"highB","internal_node_id":"0.0-2.0-2.0","time_elapsed":244464,"trial_index":6,"trial_type":"survey-likert","responses":"{\"Q0\":\"0\",\"Q1\":\"3\",\"Q2\":\"1\",\"Q3\":\"3\",\"Q4\":\"4\",\"Q5\":\"4\",\"Q6\":\"0\"}","rt":5187},{"condition":"highB","internal_node_id":"0.0-2.0-1.0","time_elapsed":253239,"trial_index":7,"trial_type":"survey-likert","responses":"{\"Q0\":\"2\",\"Q1\":\"2\",\"Q2\":\"0\",\"Q3\":\"4\",\"Q4\":\"2\",\"Q5\":\"1\",\"Q6\":\"1\"}","rt":7766},{"condition":"highB","internal_node_id":"0.0-2.0-6.0","time_elapsed":268352,"trial_index":8,"trial_type":"survey-likert","responses":"{\"Q0\":\"0\",\"Q1\":\"4\",\"Q2\":\"0\",\"Q3\":\"2\",\"Q4\":\"4\",\"Q5\":\"4\",\"Q6\":\"4\"}","rt":14097},{"condition":"highB","internal_node_id":"0.0-2.0-7.0","time_elapsed":276219,"trial_index":9,"trial_type":"survey-likert","responses":"{\"Q0\":\"3\",\"Q1\":\"1\",\"Q2\":\"1\",\"Q3\":\"0\",\"Q4\":\"0\",\"Q5\":\"0\",\"Q6\":\"0\"}","rt":6848},{"condition":"highB","internal_node_id":"0.0-2.0-0.0","time_elapsed":284255,"trial_index":10,"trial_type":"survey-likert","responses":"{\"Q0\":\"1\",\"Q1\":\"3\",\"Q2\":\"2\",\"Q3\":\"4\",\"Q4\":\"1\",\"Q5\":\"2\",\"Q6\":\"1\"}","rt":7023},{"condition":"highB","internal_node_id":"0.0-2.0-9.0","time_elapsed":291709,"trial_index":11,"trial_type":"survey-likert","responses":"{\"Q0\":\"0\",\"Q1\":\"2\",\"Q2\":\"3\",\"Q3\":\"0\",\"Q4\":\"4\",\"Q5\":\"1\",\"Q6\":\"1\"}","rt":6440},{"condition":"highB","internal_node_id":"0.0-3.0","time_elapsed":294458,"trial_index":12,"trial_type":"text","key_press":13,"rt":1744}],"__v":0}
{"_id":{"$oid":"5a2dfc0798a51900047b1840"},"data":[{"condition":"highB","internal_node_id":"0.0-0.0","time_elapsed":3888,"trial_index":0,"trial_type":"survey-multi-choice","responses":"{\"Q0\":\"I consent to participate\"}","rt":3866},{"condition":"highB","internal_node_id":"0.0-1.0","time_elapsed":6033,"trial_index":1,"trial_type":"instructions","rt":1143,"view_history":"[{\"page_index\":0,\"viewing_time\":1143}]"},{"condition":"highB","internal_node_id":"0.0-2.0-5.0","time_elapsed":25476,"trial_index":2,"trial_type":"survey-likert","responses":"{\"Q0\":\"3\",\"Q1\":\"3\",\"Q2\":\"0\",\"Q3\":\"3\",\"Q4\":\"2\",\"Q5\":\"1\",\"Q6\":\"3\"}","rt":18435},{"condition":"highB","internal_node_id":"0.0-2.0-6.0","time_elapsed":524609,"trial_index":3,"trial_type":"survey-likert","responses":"{\"Q0\":\"4\",\"Q1\":\"3\",\"Q2\":\"0\",\"Q3\":\"4\",\"Q4\":\"2\",\"Q5\":\"4\",\"Q6\":\"2\"}","rt":498120},{"condition":"highB","internal_node_id":"0.0-2.0-9.0","time_elapsed":544401,"trial_index":4,"trial_type":"survey-likert","responses":"{\"Q0\":\"4\",\"Q1\":\"4\",\"Q2\":\"1\",\"Q3\":\"0\",\"Q4\":\"2\",\"Q5\":\"4\",\"Q6\":\"3\"}","rt":18781},{"condition":"highB","internal_node_id":"0.0-2.0-8.0","time_elapsed":612731,"trial_index":5,"trial_type":"survey-likert","responses":"{\"Q0\":\"3\",\"Q1\":\"2\",\"Q2\":\"0\",\"Q3\":\"2\",\"Q4\":\"3\",\"Q5\":\"3\",\"Q6\":\"1\"}","rt":67318},{"condition":"highB","internal_node_id":"0.0-2.0-7.0","time_elapsed":630813,"trial_index":6,"trial_type":"survey-likert","responses":"{\"Q0\":\"4\",\"Q1\":\"4\",\"Q2\":\"2\",\"Q3\":\"0\",\"Q4\":\"2\",\"Q5\":\"2\",\"Q6\":\"3\"}","rt":17071},{"condition":"highB","internal_node_id":"0.0-2.0-4.0","time_elapsed":653764,"trial_index":7,"trial_type":"survey-likert","responses":"{\"Q0\":\"2\",\"Q1\":\"3\",\"Q2\":\"2\",\"Q3\":\"0\",\"Q4\":\"2\",\"Q5\":\"3\",\"Q6\":\"3\"}","rt":21939},{"condition":"highB","internal_node_id":"0.0-2.0-1.0","time_elapsed":813554,"trial_index":8,"trial_type":"survey-likert","responses":"{\"Q0\":\"3\",\"Q1\":\"1\",\"Q2\":\"1\",\"Q3\":\"0\",\"Q4\":\"2\",\"Q5\":\"3\",\"Q6\":\"2\"}","rt":158782},{"condition":"highB","internal_node_id":"0.0-2.0-3.0","time_elapsed":825470,"trial_index":9,"trial_type":"survey-likert","responses":"{\"Q0\":\"4\",\"Q1\":\"4\",\"Q2\":\"1\",\"Q3\":\"0\",\"Q4\":\"2\",\"Q5\":\"2\",\"Q6\":\"4\"}","rt":10908},{"condition":"highB","internal_node_id":"0.0-2.0-2.0","time_elapsed":848732,"trial_index":10,"trial_type":"survey-likert","responses":"{\"Q0\":\"4\",\"Q1\":\"2\",\"Q2\":\"0\",\"Q3\":\"1\",\"Q4\":\"2\",\"Q5\":\"2\",\"Q6\":\"1\"}","rt":22251},{"condition":"highB","internal_node_id":"0.0-2.0-0.0","time_elapsed":865417,"trial_index":11,"trial_type":"survey-likert","responses":"{\"Q0\":\"4\",\"Q1\":\"4\",\"Q2\":\"1\",\"Q3\":\"2\",\"Q4\":\"3\",\"Q5\":\"3\",\"Q6\":\"3\"}","rt":15675},{"condition":"highB","internal_node_id":"0.0-3.0","time_elapsed":867402,"trial_index":12,"trial_type":"text","key_press":32,"rt":984}],"__v":0}
{"_id":{"$oid":"5a2dfc3998a51900047b1841"},"data":[{"condition":"highB","internal_node_id":"0.0-0.0","time_elapsed":3200,"trial_index":0,"trial_type":"survey-multi-choice","responses":"{\"Q0\":\"I consent to participate\"}","rt":3182},{"condition":"highB","internal_node_id":"0.0-1.0","time_elapsed":6465,"trial_index":1,"trial_type":"instructions","rt":2263,"view_history":"[{\"page_index\":0,\"viewing_time\":2261}]"},{"condition":"highB","internal_node_id":"0.0-2.0-1.0","time_elapsed":26643,"trial_index":2,"trial_type":"survey-likert","responses":"{\"Q0\":\"3\",\"Q1\":\"2\",\"Q2\":\"1\",\"Q3\":\"2\",\"Q4\":\"3\",\"Q5\":\"3\",\"Q6\":\"0\"}","rt":19167},{"condition":"highB","internal_node_id":"0.0-2.0-3.0","time_elapsed":40103,"trial_index":3,"trial_type":"survey-likert","responses":"{\"Q0\":\"2\",\"Q1\":\"3\",\"Q2\":\"1\",\"Q3\":\"2\",\"Q4\":\"3\",\"Q5\":\"2\",\"Q6\":\"0\"}","rt":12451},{"condition":"highB","internal_node_id":"0.0-2.0-6.0","time_elapsed":55118,"trial_index":4,"trial_type":"survey-likert","responses":"{\"Q0\":\"2\",\"Q1\":\"1\",\"Q2\":\"2\",\"Q3\":\"2\",\"Q4\":\"3\",\"Q5\":\"2\",\"Q6\":\"0\"}","rt":14001},{"condition":"highB","internal_node_id":"0.0-2.0-7.0","time_elapsed":113656,"trial_index":5,"trial_type":"survey-likert","responses":"{\"Q0\":\"1\",\"Q1\":\"2\",\"Q2\":\"3\",\"Q3\":\"3\",\"Q4\":\"2\",\"Q5\":\"2\",\"Q6\":\"1\"}","rt":57525},{"condition":"highB","internal_node_id":"0.0-2.0-0.0","time_elapsed":131114,"trial_index":6,"trial_type":"survey-likert","responses":"{\"Q0\":\"1\",\"Q1\":\"2\",\"Q2\":\"1\",\"Q3\":\"2\",\"Q4\":\"2\",\"Q5\":\"3\",\"Q6\":\"0\"}","rt":16447},{"condition":"highB","internal_node_id":"0.0-2.0-4.0","time_elapsed":145791,"trial_index":7,"trial_type":"survey-likert","responses":"{\"Q0\":\"2\",\"Q1\":\"1\",\"Q2\":\"1\",\"Q3\":\"1\",\"Q4\":\"2\",\"Q5\":\"2\",\"Q6\":\"0\"}","rt":13668},{"condition":"highB","internal_node_id":"0.0-2.0-9.0","time_elapsed":252302,"trial_index":8,"trial_type":"survey-likert","responses":"{\"Q0\":\"1\",\"Q1\":\"2\",\"Q2\":\"2\",\"Q3\":\"2\",\"Q4\":\"2\",\"Q5\":\"3\",\"Q6\":\"0\"}","rt":105498},{"condition":"highB","internal_node_id":"0.0-2.0-2.0","time_elapsed":266191,"trial_index":9,"trial_type":"survey-likert","responses":"{\"Q0\":\"1\",\"Q1\":\"2\",\"Q2\":\"2\",\"Q3\":\"3\",\"Q4\":\"2\",\"Q5\":\"3\",\"Q6\":\"0\"}","rt":12875},{"condition":"highB","internal_node_id":"0.0-2.0-8.0","time_elapsed":297903,"trial_index":10,"trial_type":"survey-likert","responses":"{\"Q0\":\"0\",\"Q1\":\"2\",\"Q2\":\"2\",\"Q3\":\"3\",\"Q4\":\"2\",\"Q5\":\"3\",\"Q6\":\"1\"}","rt":30296},{"condition":"highB","internal_node_id":"0.0-2.0-5.0","time_elapsed":336813,"trial_index":11,"trial_type":"survey-likert","responses":"{\"Q0\":\"0\",\"Q1\":\"1\",\"Q2\":\"3\",\"Q3\":\"3\",\"Q4\":\"2\",\"Q5\":\"2\",\"Q6\":\"1\"}","rt":37898},{"condition":"highB","internal_node_id":"0.0-3.0","time_elapsed":340376,"trial_index":12,"trial_type":"text","key_press":32,"rt":2559}],"__v":0}
{"_id":{"$oid":"5a2dfd1698a51900047b1842"},"data":[{"condition":"highA","internal_node_id":"0.0-0.0","time_elapsed":39028,"trial_index":0,"trial_type":"survey-multi-choice","responses":"{\"Q0\":\"I consent to participate\"}","rt":39004},{"condition":"highA","internal_node_id":"0.0-1.0","time_elapsed":44646,"trial_index":1,"trial_type":"instructions","rt":4616,"view_history":"[{\"page_index\":0,\"viewing_time\":4615}]"},{"condition":"highA","internal_node_id":"0.0-2.0-6.0","time_elapsed":104903,"trial_index":2,"trial_type":"survey-likert","responses":"{\"Q0\":\"1\",\"Q1\":\"1\",\"Q2\":\"1\",\"Q3\":\"2\",\"Q4\":\"1\",\"Q5\":\"2\",\"Q6\":\"2\"}","rt":59237},{"condition":"highA","internal_node_id":"0.0-2.0-7.0","time_elapsed":202822,"trial_index":3,"trial_type":"survey-likert","responses":"{\"Q0\":\"0\",\"Q1\":\"1\",\"Q2\":\"1\",\"Q3\":\"1\",\"Q4\":\"0\",\"Q5\":\"1\",\"Q6\":\"2\"}","rt":96903},{"condition":"highA","internal_node_id":"0.0-2.0-0.0","time_elapsed":256406,"trial_index":4,"trial_type":"survey-likert","responses":"{\"Q0\":\"3\",\"Q1\":\"0\",\"Q2\":\"2\",\"Q3\":\"2\",\"Q4\":\"3\",\"Q5\":\"3\",\"Q6\":\"2\"}","rt":52570},{"condition":"highA","internal_node_id":"0.0-2.0-5.0","time_elapsed":287975,"trial_index":5,"trial_type":"survey-likert","responses":"{\"Q0\":\"1\",\"Q1\":\"1\",\"Q2\":\"0\",\"Q3\":\"0\",\"Q4\":\"0\",\"Q5\":\"0\",\"Q6\":\"0\"}","rt":30553},{"condition":"highA","internal_node_id":"0.0-2.0-2.0","time_elapsed":329797,"trial_index":6,"trial_type":"survey-likert","responses":"{\"Q0\":\"3\",\"Q1\":\"1\",\"Q2\":\"2\",\"Q3\":\"2\",\"Q4\":\"2\",\"Q5\":\"2\",\"Q6\":\"3\"}","rt":40808},{"condition":"highA","internal_node_id":"0.0-2.0-8.0","time_elapsed":360966,"trial_index":7,"trial_type":"survey-likert","responses":"{\"Q0\":\"0\",\"Q1\":\"0\",\"Q2\":\"3\",\"Q3\":\"3\",\"Q4\":\"2\",\"Q5\":\"2\",\"Q6\":\"3\"}","rt":30153},{"condition":"highA","internal_node_id":"0.0-2.0-4.0","time_elapsed":391828,"trial_index":8,"trial_type":"survey-likert","responses":"{\"Q0\":\"0\",\"Q1\":\"0\",\"Q2\":\"2\",\"Q3\":\"3\",\"Q4\":\"4\",\"Q5\":\"4\",\"Q6\":\"2\"}","rt":29853},{"condition":"highA","internal_node_id":"0.0-2.0-9.0","time_elapsed":457149,"trial_index":9,"trial_type":"survey-likert","responses":"{\"Q0\":\"3\",\"Q1\":\"0\",\"Q2\":\"2\",\"Q3\":\"4\",\"Q4\":\"1\",\"Q5\":\"1\",\"Q6\":\"0\"}","rt":64312},{"condition":"highA","internal_node_id":"0.0-2.0-1.0","time_elapsed":1243982,"trial_index":10,"trial_type":"survey-likert","responses":"{\"Q0\":\"0\",\"Q1\":\"2\",\"Q2\":\"2\",\"Q3\":\"1\",\"Q4\":\"1\",\"Q5\":\"1\",\"Q6\":\"2\"}","rt":785819},{"condition":"highA","internal_node_id":"0.0-2.0-3.0","time_elapsed":1272471,"trial_index":11,"trial_type":"survey-likert","responses":"{\"Q0\":\"2\",\"Q1\":\"1\",\"Q2\":\"4\",\"Q3\":\"2\",\"Q4\":\"1\",\"Q5\":\"2\",\"Q6\":\"0\"}","rt":27473},{"condition":"highA","internal_node_id":"0.0-3.0","time_elapsed":1275275,"trial_index":12,"trial_type":"text","key_press":32,"rt":1803}],"__v":0}
{"_id":{"$oid":"5a2dfe7298a51900047b1843"},"data":[{"condition":"highA","internal_node_id":"0.0-0.0","time_elapsed":32804,"trial_index":0,"trial_type":"survey-multi-choice","responses":"{\"Q0\":\"I consent to participate\"}","rt":32782},{"condition":"highA","internal_node_id":"0.0-1.0","time_elapsed":34905,"trial_index":1,"trial_type":"instructions","rt":1096,"view_history":"[{\"page_index\":0,\"viewing_time\":1094}]"},{"condition":"highA","internal_node_id":"0.0-2.0-5.0","time_elapsed":90292,"trial_index":2,"trial_type":"survey-likert","responses":"{\"Q0\":\"3\",\"Q1\":\"2\",\"Q2\":\"0\",\"Q3\":\"3\",\"Q4\":\"3\",\"Q5\":\"1\",\"Q6\":\"4\"}","rt":54365},{"condition":"highA","internal_node_id":"0.0-2.0-0.0","time_elapsed":94018,"trial_index":3,"trial_type":"survey-likert","responses":"{\"Q0\":\"1\",\"Q1\":\"1\",\"Q2\":\"4\",\"Q3\":\"0\",\"Q4\":\"0\",\"Q5\":\"1\",\"Q6\":\"1\"}","rt":2713},{"condition":"highA","internal_node_id":"0.0-2.0-6.0","time_elapsed":98152,"trial_index":4,"trial_type":"survey-likert","responses":"{\"Q0\":\"1\",\"Q1\":\"2\",\"Q2\":\"1\",\"Q3\":\"1\",\"Q4\":\"4\",\"Q5\":\"2\",\"Q6\":\"0\"}","rt":3115},{"condition":"highA","internal_node_id":"0.0-2.0-9.0","time_elapsed":103268,"trial_index":5,"trial_type":"survey-likert","responses":"{\"Q0\":\"0\",\"Q1\":\"4\",\"Q2\":\"1\",\"Q3\":\"3\",\"Q4\":\"4\",\"Q5\":\"1\",\"Q6\":\"0\"}","rt":4107},{"condition":"highA","internal_node_id":"0.0-2.0-8.0","time_elapsed":106779,"trial_index":6,"trial_type":"survey-likert","responses":"{\"Q0\":\"0\",\"Q1\":\"2\",\"Q2\":\"3\",\"Q3\":\"0\",\"Q4\":\"1\",\"Q5\":\"4\",\"Q6\":\"3\"}","rt":2497},{"condition":"highA","internal_node_id":"0.0-2.0-2.0","time_elapsed":277983,"trial_index":7,"trial_type":"survey-likert","responses":"{\"Q0\":\"2\",\"Q1\":\"1\",\"Q2\":\"4\",\"Q3\":\"2\",\"Q4\":\"2\",\"Q5\":\"2\",\"Q6\":\"4\"}","rt":170179},{"condition":"highA","internal_node_id":"0.0-2.0-7.0","time_elapsed":280355,"trial_index":8,"trial_type":"survey-likert","responses":"{\"Q0\":\"1\",\"Q1\":\"2\",\"Q2\":\"1\",\"Q3\":\"4\",\"Q4\":\"2\",\"Q5\":\"0\",\"Q6\":\"3\"}","rt":1362},{"condition":"highA","internal_node_id":"0.0-2.0-4.0","time_elapsed":283180,"trial_index":9,"trial_type":"survey-likert","responses":"{\"Q0\":\"4\",\"Q1\":\"3\",\"Q2\":\"3\",\"Q3\":\"3\",\"Q4\":\"0\",\"Q5\":\"1\",\"Q6\":\"1\"}","rt":1811},{"condition":"highA","internal_node_id":"0.0-2.0-1.0","time_elapsed":285733,"trial_index":10,"trial_type":"survey-likert","responses":"{\"Q0\":\"3\",\"Q1\":\"2\",\"Q2\":\"1\",\"Q3\":\"2\",\"Q4\":\"3\",\"Q5\":\"3\",\"Q6\":\"4\"}","rt":1536},{"condition":"highA","internal_node_id":"0.0-2.0-3.0","time_elapsed":289175,"trial_index":11,"trial_type":"survey-likert","responses":"{\"Q0\":\"4\",\"Q1\":\"2\",\"Q2\":\"0\",\"Q3\":\"4\",\"Q4\":\"3\",\"Q5\":\"2\",\"Q6\":\"2\"}","rt":2428},{"condition":"highA","internal_node_id":"0.0-3.0","time_elapsed":292718,"trial_index":12,"trial_type":"text","key_press":13,"rt":2537}],"__v":0}
{"_id":{"$oid":"5a2dff6898a51900047b1844"},"data":[{"condition":"highA","internal_node_id":"0.0-0.0","time_elapsed":6284,"trial_index":0,"trial_type":"survey-multi-choice","responses":"{\"Q0\":\"I consent to participate\"}","rt":6276},{"condition":"highA","internal_node_id":"0.0-1.0","time_elapsed":8715,"trial_index":1,"trial_type":"instructions","rt":1422,"view_history":"[{\"page_index\":0,\"viewing_time\":1421}]"},{"condition":"highA","internal_node_id":"0.0-2.0-4.0","time_elapsed":49556,"trial_index":2,"trial_type":"survey-likert","responses":"{\"Q0\":\"4\",\"Q1\":\"0\",\"Q2\":\"0\",\"Q3\":\"0\",\"Q4\":\"1\",\"Q5\":\"0\",\"Q6\":\"1\"}","rt":39826},{"condition":"highA","internal_node_id":"0.0-2.0-3.0","time_elapsed":76237,"trial_index":3,"trial_type":"survey-likert","responses":"{\"Q0\":\"3\",\"Q1\":\"0\",\"Q2\":\"0\",\"Q3\":\"0\",\"Q4\":\"1\",\"Q5\":\"0\",\"Q6\":\"1\"}","rt":25670},{"condition":"highA","internal_node_id":"0.0-2.0-1.0","time_elapsed":112589,"trial_index":4,"trial_type":"survey-likert","responses":"{\"Q0\":\"1\",\"Q1\":\"1\",\"Q2\":\"0\",\"Q3\":\"0\",\"Q4\":\"1\",\"Q5\":\"0\",\"Q6\":\"0\"}","rt":35341},{"condition":"highA","internal_node_id":"0.0-2.0-7.0","time_elapsed":139917,"trial_index":5,"trial_type":"survey-likert","responses":"{\"Q0\":\"0\",\"Q1\":\"4\",\"Q2\":\"0\",\"Q3\":\"0\",\"Q4\":\"0\",\"Q5\":\"0\",\"Q6\":\"3\"}","rt":26319},{"condition":"highA","internal_node_id":"0.0-2.0-2.0","time_elapsed":167972,"trial_index":6,"trial_type":"survey-likert","responses":"{\"Q0\":\"2\",\"Q1\":\"2\",\"Q2\":\"0\",\"Q3\":\"0\",\"Q4\":\"0\",\"Q5\":\"0\",\"Q6\":\"2\"}","rt":27044},{"condition":"highA","internal_node_id":"0.0-2.0-6.0","time_elapsed":194529,"trial_index":7,"trial_type":"survey-likert","responses":"{\"Q0\":\"1\",\"Q1\":\"0\",\"Q2\":\"0\",\"Q3\":\"0\",\"Q4\":\"1\",\"Q5\":\"0\",\"Q6\":\"0\"}","rt":25546},{"condition":"highA","internal_node_id":"0.0-2.0-9.0","time_elapsed":220883,"trial_index":8,"trial_type":"survey-likert","responses":"{\"Q0\":\"0\",\"Q1\":\"3\",\"Q2\":\"0\",\"Q3\":\"0\",\"Q4\":\"0\",\"Q5\":\"0\",\"Q6\":\"0\"}","rt":25344},{"condition":"highA","internal_node_id":"0.0-2.0-5.0","time_elapsed":245593,"trial_index":9,"trial_type":"survey-likert","responses":"{\"Q0\":\"4\",\"Q1\":\"0\",\"Q2\":\"2\",\"Q3\":\"0\",\"Q4\":\"0\",\"Q5\":\"0\",\"Q6\":\"0\"}","rt":23701},{"condition":"highA","internal_node_id":"0.0-2.0-8.0","time_elapsed":276015,"trial_index":10,"trial_type":"survey-likert","responses":"{\"Q0\":\"1\",\"Q1\":\"2\",\"Q2\":\"0\",\"Q3\":\"0\",\"Q4\":\"0\",\"Q5\":\"0\",\"Q6\":\"0\"}","rt":29412},{"condition":"highA","internal_node_id":"0.0-2.0-0.0","time_elapsed":315534,"trial_index":11,"trial_type":"survey-likert","responses":"{\"Q0\":\"0\",\"Q1\":\"4\",\"Q2\":\"2\",\"Q3\":\"2\",\"Q4\":\"2\",\"Q5\":\"0\",\"Q6\":\"2\"}","rt":38507},{"condition":"highA","internal_node_id":"0.0-3.0","time_elapsed":318309,"trial_index":12,"trial_type":"text","key_press":32,"rt":1773}],"__v":0}
{"_id":{"$oid":"5a2dffdc98a51900047b1845"},"data":[{"condition":"highB","internal_node_id":"0.0-0.0","time_elapsed":3060,"trial_index":0,"trial_type":"survey-multi-choice","responses":"{\"Q0\":\"I consent to participate\"}","rt":3032},{"condition":"highB","internal_node_id":"0.0-1.0","time_elapsed":4799,"trial_index":1,"trial_type":"instructions","rt":735,"view_history":"[{\"page_index\":0,\"viewing_time\":734}]"},{"condition":"highB","internal_node_id":"0.0-2.0-1.0","time_elapsed":756481,"trial_index":2,"trial_type":"survey-likert","responses":"{\"Q0\":\"2\",\"Q1\":\"2\",\"Q2\":\"0\",\"Q3\":\"1\",\"Q4\":\"4\",\"Q5\":\"2\",\"Q6\":\"3\"}","rt":750668},{"condition":"highB","internal_node_id":"0.0-2.0-5.0","time_elapsed":759191,"trial_index":3,"trial_type":"survey-likert","responses":"{\"Q0\":\"1\",\"Q1\":\"0\",\"Q2\":\"0\",\"Q3\":\"4\",\"Q4\":\"4\",\"Q5\":\"4\",\"Q6\":\"4\"}","rt":1695},{"condition":"highB","internal_node_id":"0.0-2.0-9.0","time_elapsed":865633,"trial_index":4,"trial_type":"survey-likert","responses":"{\"Q0\":\"4\",\"Q1\":\"2\",\"Q2\":\"0\",\"Q3\":\"4\",\"Q4\":\"2\",\"Q5\":\"1\",\"Q6\":\"2\"}","rt":105425},{"condition":"highB","internal_node_id":"0.0-2.0-8.0","time_elapsed":868991,"trial_index":5,"trial_type":"survey-likert","responses":"{\"Q0\":\"1\",\"Q1\":\"4\",\"Q2\":\"1\",\"Q3\":\"3\",\"Q4\":\"0\",\"Q5\":\"4\",\"Q6\":\"4\"}","rt":2344},{"condition":"highB","internal_node_id":"0.0-2.0-0.0","time_elapsed":871949,"trial_index":6,"trial_type":"survey-likert","responses":"{\"Q0\":\"3\",\"Q1\":\"2\",\"Q2\":\"4\",\"Q3\":\"4\",\"Q4\":\"1\",\"Q5\":\"2\",\"Q6\":\"1\"}","rt":1948},{"condition":"highB","internal_node_id":"0.0-2.0-4.0","time_elapsed":875468,"trial_index":7,"trial_type":"survey-likert","responses":"{\"Q0\":\"4\",\"Q1\":\"3\",\"Q2\":\"2\",\"Q3\":\"4\",\"Q4\":\"0\",\"Q5\":\"4\",\"Q6\":\"0\"}","rt":2510},{"condition":"highB","internal_node_id":"0.0-2.0-3.0","time_elapsed":878314,"trial_index":8,"trial_type":"survey-likert","responses":"{\"Q0\":\"3\",\"Q1\":\"0\",\"Q2\":\"2\",\"Q3\":\"3\",\"Q4\":\"1\",\"Q5\":\"4\",\"Q6\":\"1\"}","rt":1823},{"condition":"highB","internal_node_id":"0.0-2.0-7.0","time_elapsed":881160,"trial_index":9,"trial_type":"survey-likert","responses":"{\"Q0\":\"2\",\"Q1\":\"3\",\"Q2\":\"4\",\"Q3\":\"3\",\"Q4\":\"3\",\"Q5\":\"1\",\"Q6\":\"0\"}","rt":1831},{"condition":"highB","internal_node_id":"0.0-2.0-2.0","time_elapsed":888169,"trial_index":10,"trial_type":"survey-likert","responses":"{\"Q0\":\"4\",\"Q1\":\"4\",\"Q2\":\"3\",\"Q3\":\"3\",\"Q4\":\"1\",\"Q5\":\"1\",\"Q6\":\"2\"}","rt":5992},{"condition":"highB","internal_node_id":"0.0-2.0-6.0","time_elapsed":891443,"trial_index":11,"trial_type":"survey-likert","responses":"{\"Q0\":\"3\",\"Q1\":\"1\",\"Q2\":\"2\",\"Q3\":\"1\",\"Q4\":\"3\",\"Q5\":\"2\",\"Q6\":\"4\"}","rt":2256},{"condition":"highB","internal_node_id":"0.0-3.0","time_elapsed":894968,"trial_index":12,"trial_type":"text","key_press":13,"rt":2519}],"__v":0}
