{"_id":{"$oid":"5a4961d0d9d00c000415ad06"},"data":[{"randomScores":[43,3370,3362,47,3361,3375,22,38,3358,30],"randomQuestions":["Why aren't other animals as freaked out by bugs and creepy crawlies as humans?","Why do typical spray pump bottles of cologne or perfume evaporate quickly when left on their side or \"tipped over,\" but not while upright?","Why is CPR for drowning different than CPR for people who collapse from heart problems? (e.g rescue breaths are recommended for one but not the other)","Why do some alcoholics suffer life threatening withdrawl symptoms while others with the same drinking habits don't when they quit?","How does the body separates water from stomach acid?","What gives something it's taste? Does pyrite taste like table salt because they are both cubes?","Why do your eyelids get puffy after crying?","Why is the consistency of my ice cream different when it melts and I refreeze it?","What make some objects 'bouncier' than others?","How do scientists know what the global temperature was millions of years ago?"],"condition":"highB","randomJudgements":["How confident are you that you know the correct answer to this question?","To what extent would knowing the answer to this question be useful to you in the future?","How curious are you about the answer to this question?","How well-written do you think this question is?","How popular do you think this question is in this social forum?"],"internal_node_id":"0.0-0.0","time_elapsed":3975,"trial_index":0,"trial_type":"survey-multi-choice","responses":"{\"Q0\":\"I consent to participate\"}","rt":3964},{"randomScores":[43,3370,3362,47,3361,3375,22,38,3358,30],"randomQuestions":["Why aren't other animals as freaked out by bugs and creepy crawlies as humans?","Why do typical spray pump bottles of cologne or perfume evaporate quickly when left on their side or \"tipped over,\" but not while upright?","Why is CPR for drowning different than CPR for people who collapse from heart problems? (e.g rescue breaths are recommended for one but not the other)","Why do some alcoholics suffer life threatening withdrawl symptoms while others with the same drinking habits don't when they quit?","How does the body separates water from stomach acid?","What gives something it's taste? Does pyrite taste like table salt because they are both cubes?","Why do your eyelids get puffy after crying?","Why is the consistency of my ice cream different when it melts and I refreeze it?","What make some objects 'bouncier' than others?","How do scientists know what the global temperature was millions of years ago?"],"condition":"highB","randomJudgements":["How confident are you that you know the correct answer to this question?","To what extent would knowing the answer to this question be useful to you in the future?","How curious are you about the answer to this question?","How well-written do you think this question is?","How popular do you think this question is in this social forum?"],"internal_node_id":"0.0-1.0","time_elapsed":5918,"trial_index":1,"trial_type":"instructions","rt":941,"view_history":"[{\"page_index\":0,\"viewing_time\":940}]"},{"randomScores":[43,3370,3362,47,3361,3375,22,38,3358,30],"randomQuestions":["Why aren't other animals as freaked out by bugs and creepy crawlies as humans?","Why do typical spray pump bottles of cologne or perfume evaporate quickly when left on their side or \"tipped over,\" but not while upright?","Why is CPR for drowning different than CPR for people who collapse from heart problems? (e.g rescue breaths are recommended for one but not the other)","Why do some alcoholics suffer life threatening withdrawl symptoms while others with the same drinking habits don't when they quit?","How does the body separates water from stomach acid?","What gives something it's taste? Does pyrite taste like table salt because they are both cubes?","Why do your eyelids get puffy after crying?","Why is the consistency of my ice cream different when it melts and I refreeze it?","What make some objects 'bouncier' than others?","How do scientists know what the global temperature was millions of years ago?"],"condition":"highB","randomJudgements":["How confident are you that you know the correct answer to this question?","To what extent would knowing the answer to this question be useful to you in the future?","How curious are you about the answer to this question?","How well-written do you think this question is?","How popular do you think this question is in this social forum?"],"internal_node_id":"0.0-2.0-0.0","time_elapsed":23935,"trial_index":2,"trial_type":"survey-likert","responses":"{\"Q0\":\"5\",\"Q1\":\"5\",\"Q2\":\"5\",\"Q3\":\"6\",\"Q4\":\"4\"}","rt":17010},{"randomScores":[43,3370,3362,47,3361,3375,22,38,3358,30],"randomQuestions":["Why aren't other animals as freaked out by bugs and creepy crawlies as humans?","Why do typical spray pump bottles of cologne or perfume evaporate quickly when left on their side or \"tipped over,\" but not while upright?","Why is CPR for drowning different than CPR for people who collapse from heart problems? (e.g rescue breaths are recommended for one but not the other)","Why do some alcoholics suffer life threatening withdrawl symptoms while others with the same drinking habits don't when they quit?","How does the body separates water from stomach acid?","What gives something it's taste? Does pyrite taste like table salt because they are both cubes?","Why do your eyelids get puffy after crying?","Why is the consistency of my ice cream different when it melts and I refreeze it?","What make some objects 'bouncier' than others?","How do scientists know what the global temperature was millions of years ago?"],"condition":"highB","randomJudgements":["How confident are you that you know the correct answer to this question?","To what extent would knowing the answer to this question be useful to you in the future?","How curious are you about the answer to this question?","How well-written do you think this question is?","How popular do you think this question is in this social forum?"],"internal_node_id":"0.0-2.0-1.0","time_elapsed":33805,"trial_index":3,"trial_type":"survey-likert","responses":"{\"Q0\":\"4\",\"Q1\":\"4\",\"Q2\":\"2\",\"Q3\":\"4\",\"Q4\":\"4\"}","rt":8866},{"randomScores":[43,3370,3362,47,3361,3375,22,38,3358,30],"randomQuestions":["Why aren't other animals as freaked out by bugs and creepy crawlies as humans?","Why do typical spray pump bottles of cologne or perfume evaporate quickly when left on their side or \"tipped over,\" but not while upright?","Why is CPR for drowning different than CPR for people who collapse from heart problems? (e.g rescue breaths are recommended for one but not the other)","Why do some alcoholics suffer life threatening withdrawl symptoms while others with the same drinking habits don't when they quit?","How does the body separates water from stomach acid?","What gives something it's taste? Does pyrite taste like table salt because they are both cubes?","Why do your eyelids get puffy after crying?","Why is the consistency of my ice cream different when it melts and I refreeze it?","What make some objects 'bouncier' than others?","How do scientists know what the global temperature was millions of years ago?"],"condition":"highB","randomJudgements":["How confident are you that you know the correct answer to this question?","To what extent would knowing the answer to this question be useful to you in the future?","How curious are you about the answer to this question?","How well-written do you think this question is?","How popular do you think this question is in this social forum?"],"internal_node_id":"0.0-2.0-2.0","time_elapsed":43005,"trial_index":4,"trial_type":"survey-likert","responses":"{\"Q0\":\"2\",\"Q1\":\"4\",\"Q2\":\"3\",\"Q3\":\"4\",\"Q4\":\"4\"}","rt":8196},{"randomScores":[43,3370,3362,47,3361,3375,22,38,3358,30],"randomQuestions":["Why aren't other animals as freaked out by bugs and creepy crawlies as humans?","Why do typical spray pump bottles of cologne or perfume evaporate quickly when left on their side or \"tipped over,\" but not while upright?","Why is CPR for drowning different than CPR for people who collapse from heart problems? (e.g rescue breaths are recommended for one but not the other)","Why do some alcoholics suffer life threatening withdrawl symptoms while others with the same drinking habits don't when they quit?","How does the body separates water from stomach acid?","What gives something it's taste? Does pyrite taste like table salt because they are both cubes?","Why do your eyelids get puffy after crying?","Why is the consistency of my ice cream different when it melts and I refreeze it?","What make some objects 'bouncier' than others?","How do scientists know what the global temperature was millions of years ago?"],"condition":"highB","randomJudgements":["How confident are you that you know the correct answer to this question?","To what extent would knowing the answer to this question be useful to you in the future?","How curious are you about the answer to this question?","How well-written do you think this question is?","How popular do you think this question is in this social forum?"],"internal_node_id":"0.0-2.0-3.0","time_elapsed":50445,"trial_index":5,"trial_type":"survey-likert","responses":"{\"Q0\":\"5\",\"Q1\":\"5\",\"Q2\":\"4\",\"Q3\":\"4\",\"Q4\":\"3\"}","rt":6436},{"randomScores":[43,3370,3362,47,3361,3375,22,38,3358,30],"randomQuestions":["Why aren't other animals as freaked out by bugs and creepy crawlies as humans?","Why do typical spray pump bottles of cologne or perfume evaporate quickly when left on their side or \"tipped over,\" but not while upright?","Why is CPR for drowning different than CPR for people who collapse from heart problems? (e.g rescue breaths are recommended for one but not the other)","Why do some alcoholics suffer life threatening withdrawl symptoms while others with the same drinking habits don't when they quit?","How does the body separates water from stomach acid?","What gives something it's taste? Does pyrite taste like table salt because they are both cubes?","Why do your eyelids get puffy after crying?","Why is the consistency of my ice cream different when it melts and I refreeze it?","What make some objects 'bouncier' than others?","How do scientists know what the global temperature was millions of years ago?"],"condition":"highB","randomJudgements":["How confident are you that you know the correct answer to this question?","To what extent would knowing the answer to this question be useful to you in the future?","How curious are you about the answer to this question?","How well-written do you think this question is?","How popular do you think this question is in this social forum?"],"internal_node_id":"0.0-2.0-4.0","time_elapsed":57892,"trial_index":6,"trial_type":"survey-likert","responses":"{\"Q0\":\"4\",\"Q1\":\"4\",\"Q2\":\"4\",\"Q3\":\"4\",\"Q4\":\"4\"}","rt":6443},{"randomScores":[43,3370,3362,47,3361,3375,22,38,3358,30],"randomQuestions":["Why aren't other animals as freaked out by bugs and creepy crawlies as humans?","Why do typical spray pump bottles of cologne or perfume evaporate quickly when left on their side or \"tipped over,\" but not while upright?","Why is CPR for drowning different than CPR for people who collapse from heart problems? (e.g rescue breaths are recommended for one but not the other)","Why do some alcoholics suffer life threatening withdrawl symptoms while others with the same drinking habits don't when they quit?","How does the body separates water from stomach acid?","What gives something it's taste? Does pyrite taste like table salt because they are both cubes?","Why do your eyelids get puffy after crying?","Why is the consistency of my ice cream different when it melts and I refreeze it?","What make some objects 'bouncier' than others?","How do scientists know what the global temperature was millions of years ago?"],"condition":"highB","randomJudgements":["How confident are you that you know the correct answer to this question?","To what extent would knowing the answer to this question be useful to you in the future?","How curious are you about the answer to this question?","How well-written do you think this question is?","How popular do you think this question is in this social forum?"],"internal_node_id":"0.0-2.0-5.0","time_elapsed":64468,"trial_index":7,"trial_type":"survey-likert","responses":"{\"Q0\":\"6\",\"Q1\":\"6\",\"Q2\":\"6\",\"Q3\":\"6\",\"Q4\":\"6\"}","rt":5570},{"randomScores":[43,3370,3362,47,3361,3375,22,38,3358,30],"randomQuestions":["Why aren't other animals as freaked out by bugs and creepy crawlies as humans?","Why do typical spray pump bottles of cologne or perfume evaporate quickly when left on their side or \"tipped over,\" but not while upright?","Why is CPR for drowning different than CPR for people who collapse from heart problems? (e.g rescue breaths are recommended for one but not the other)","Why do some alcoholics suffer life threatening withdrawl symptoms while others with the same drinking habits don't when they quit?","How does the body separates water from stomach acid?","What gives something it's taste? Does pyrite taste like table salt because they are both cubes?","Why do your eyelids get puffy after crying?","Why is the consistency of my ice cream different when it melts and I refreeze it?","What make some objects 'bouncier' than others?","How do scientists know what the global temperature was millions of years ago?"],"condition":"highB","randomJudgements":["How confident are you that you know the correct answer to this question?","To what extent would knowing the answer to this question be useful to you in the future?","How curious are you about the answer to this question?","How well-written do you think this question is?","How popular do you think this question is in this social forum?"],"internal_node_id":"0.0-2.0-6.0","time_elapsed":70068,"trial_index":8,"trial_type":"survey-likert","responses":"{\"Q0\":\"4\",\"Q1\":\"5\",\"Q2\":\"5\",\"Q3\":\"2\",\"Q4\":\"3\"}","rt":4595},{"randomScores":[43,3370,3362,47,3361,3375,22,38,3358,30],"randomQuestions":["Why aren't other animals as freaked out by bugs and creepy crawlies as humans?","Why do typical spray pump bottles of cologne or perfume evaporate quickly when left on their side or \"tipped over,\" but not while upright?","Why is CPR for drowning different than CPR for people who collapse from heart problems? (e.g rescue breaths are recommended for one but not the other)","Why do some alcoholics suffer life threatening withdrawl symptoms while others with the same drinking habits don't when they quit?","How does the body separates water from stomach acid?","What gives something it's taste? Does pyrite taste like table salt because they are both cubes?","Why do your eyelids get puffy after crying?","Why is the consistency of my ice cream different when it melts and I refreeze it?","What make some objects 'bouncier' than others?","How do scientists know what the global temperature was millions of years ago?"],"condition":"highB","randomJudgements":["How confident are you that you know the correct answer to this question?","To what extent would knowing the answer to this question be useful to you in the future?","How curious are you about the answer to this question?","How well-written do you think this question is?","How popular do you think this question is in this social forum?"],"internal_node_id":"0.0-2.0-7.0","time_elapsed":77219,"trial_index":9,"trial_type":"survey-likert","responses":"{\"Q0\":\"2\",\"Q1\":\"4\",\"Q2\":\"4\",\"Q3\":\"4\",\"Q4\":\"0\"}","rt":6148},{"randomScores":[43,3370,3362,47,3361,3375,22,38,3358,30],"randomQuestions":["Why aren't other animals as freaked out by bugs and creepy crawlies as humans?","Why do typical spray pump bottles of cologne or perfume evaporate quickly when left on their side or \"tipped over,\" but not while upright?","Why is CPR for drowning different than CPR for people who collapse from heart problems? (e.g rescue breaths are recommended for one but not the other)","Why do some alcoholics suffer life threatening withdrawl symptoms while others with the same drinking habits don't when they quit?","How does the body separates water from stomach acid?","What gives something it's taste? Does pyrite taste like table salt because they are both cubes?","Why do your eyelids get puffy after crying?","Why is the consistency of my ice cream different when it melts and I refreeze it?","What make some objects 'bouncier' than others?","How do scientists know what the global temperature was millions of years ago?"],"condition":"highB","randomJudgements":["How confident are you that you know the correct answer to this question?","To what extent would knowing the answer to this question be useful to you in the future?","How curious are you about the answer to this question?","How well-written do you think this question is?","How popular do you think this question is in this social forum?"],"internal_node_id":"0.0-2.0-8.0","time_elapsed":87539,"trial_index":10,"trial_type":"survey-likert","responses":"{\"Q0\":\"0\",\"Q1\":\"5\",\"Q2\":\"4\",\"Q3\":\"3\",\"Q4\":\"3\"}","rt":9315},{"randomScores":[43,3370,3362,47,3361,3375,22,38,3358,30],"randomQuestions":["Why aren't other animals as freaked out by bugs and creepy crawlies as humans?","Why do typical spray pump bottles of cologne or perfume evaporate quickly when left on their side or \"tipped over,\" but not while upright?","Why is CPR for drowning different than CPR for people who collapse from heart problems? (e.g rescue breaths are recommended for one but not the other)","Why do some alcoholics suffer life threatening withdrawl symptoms while others with the same drinking habits don't when they quit?","How does the body separates water from stomach acid?","What gives something it's taste? Does pyrite taste like table salt because they are both cubes?","Why do your eyelids get puffy after crying?","Why is the consistency of my ice cream different when it melts and I refreeze it?","What make some objects 'bouncier' than others?","How do scientists know what the global temperature was millions of years ago?"],"condition":"highB","randomJudgements":["How confident are you that you know the correct answer to this question?","To what extent would knowing the answer to this question be useful to you in the future?","How curious are you about the answer to this question?","How well-written do you think this question is?","How popular do you think this question is in this social forum?"],"internal_node_id":"0.0-2.0-9.0","time_elapsed":93188,"trial_index":11,"trial_type":"survey-likert","responses":"{\"Q0\":\"2\",\"Q1\":\"4\",\"Q2\":\"3\",\"Q3\":\"4\",\"Q4\":\"3\"}","rt":4644},{"randomScores":[43,3370,3362,47,3361,3375,22,38,3358,30],"randomQuestions":["Why aren't other animals as freaked out by bugs and creepy crawlies as humans?","Why do typical spray pump bottles of cologne or perfume evaporate quickly when left on their side or \"tipped over,\" but not while upright?","Why is CPR for drowning different than CPR for people who collapse from heart problems? (e.g rescue breaths are recommended for one but not the other)","Why do some alcoholics suffer life threatening withdrawl symptoms while others with the same drinking habits don't when they quit?","How does the body separates water from stomach acid?","What gives something it's taste? Does pyrite taste like table salt because they are both cubes?","Why do your eyelids get puffy after crying?","Why is the consistency of my ice cream different when it melts and I refreeze it?","What make some objects 'bouncier' than others?","How do scientists know what the global temperature was millions of years ago?"],"condition":"highB","randomJudgements":["How confident are you that you know the correct answer to this question?","To what extent would knowing the answer to this question be useful to you in the future?","How curious are you about the answer to this question?","How well-written do you think this question is?","How popular do you think this question is in this social forum?"],"internal_node_id":"0.0-3.0","time_elapsed":96260,"trial_index":12,"trial_type":"instructions","rt":2071,"view_history":"[{\"page_index\":0,\"viewing_time\":2071}]"},{"randomScores":[43,3370,3362,47,3361,3375,22,38,3358,30],"randomQuestions":["Why aren't other animals as freaked out by bugs and creepy crawlies as humans?","Why do typical spray pump bottles of cologne or perfume evaporate quickly when left on their side or \"tipped over,\" but not while upright?","Why is CPR for drowning different than CPR for people who collapse from heart problems? (e.g rescue breaths are recommended for one but not the other)","Why do some alcoholics suffer life threatening withdrawl symptoms while others with the same drinking habits don't when they quit?","How does the body separates water from stomach acid?","What gives something it's taste? Does pyrite taste like table salt because they are both cubes?","Why do your eyelids get puffy after crying?","Why is the consistency of my ice cream different when it melts and I refreeze it?","What make some objects 'bouncier' than others?","How do scientists know what the global temperature was millions of years ago?"],"condition":"highB","randomJudgements":["How confident are you that you know the correct answer to this question?","To what extent would knowing the answer to this question be useful to you in the future?","How curious are you about the answer to this question?","How well-written do you think this question is?","How popular do you think this question is in this social forum?"],"internal_node_id":"0.0-4.0","time_elapsed":134382,"trial_index":13,"trial_type":"survey-multi-choose","responses":"{\"Q0\":\"Reveal Answer\",\"Q1\":\"Keep Hidden\",\"Q2\":\"Keep Hidden\",\"Q3\":\"Reveal Answer\",\"Q4\":\"Reveal Answer\",\"Q5\":\"Keep Hidden\",\"Q6\":\"Reveal Answer\",\"Q7\":\"Reveal Answer\",\"Q8\":\"Keep Hidden\",\"Q9\":\"Keep Hidden\"}","rt":37108},{"randomScores":[43,3370,3362,47,3361,3375,22,38,3358,30],"randomQuestions":["Why aren't other animals as freaked out by bugs and creepy crawlies as humans?","Why do typical spray pump bottles of cologne or perfume evaporate quickly when left on their side or \"tipped over,\" but not while upright?","Why is CPR for drowning different than CPR for people who collapse from heart problems? (e.g rescue breaths are recommended for one but not the other)","Why do some alcoholics suffer life threatening withdrawl symptoms while others with the same drinking habits don't when they quit?","How does the body separates water from stomach acid?","What gives something it's taste? Does pyrite taste like table salt because they are both cubes?","Why do your eyelids get puffy after crying?","Why is the consistency of my ice cream different when it melts and I refreeze it?","What make some objects 'bouncier' than others?","How do scientists know what the global temperature was millions of years ago?"],"condition":"highB","randomJudgements":["How confident are you that you know the correct answer to this question?","To what extent would knowing the answer to this question be useful to you in the future?","How curious are you about the answer to this question?","How well-written do you think this question is?","How popular do you think this question is in this social forum?"],"internal_node_id":"0.0-5.0","time_elapsed":148324,"trial_index":14,"trial_type":"instructions","rt":12937,"view_history":"[{\"page_index\":0,\"viewing_time\":12936}]"}],"__v":0}
{"_id":{"$oid":"5a4961dcd9d00c000415ad07"},"data":[{"randomScores":[3375,32,3394,28,3373,5,3350,3378,26,38],"randomQuestions":["What gives something it's taste? Does pyrite taste like table salt because they are both cubes?","Why do some alcoholics suffer life threatening withdrawl symptoms while others with the same drinking habits don't when they quit?","Why do typical spray pump bottles of cologne or perfume evaporate quickly when left on their side or \"tipped over,\" but not while upright?","Why is the consistency of my ice cream different when it melts and I refreeze it?","What make some objects 'bouncier' than others?","Why do your eyelids get puffy after crying?","How does the body separates water from stomach acid?","Why is CPR for drowning different than CPR for people who collapse from heart problems? (e.g rescue breaths are recommended for one but not the other)","How do scientists know what the global temperature was millions of years ago?","Why aren't other animals as freaked out by bugs and creepy crawlies as humans?"],"condition":"highB","randomJudgements":["How confident are you that you know the correct answer to this question?","How curious are you about the answer to this question?","How popular do you think this question is in this social forum?","How well-written do you think this question is?","To what extent would knowing the answer to this question be useful to you in the future?"],"internal_node_id":"0.0-0.0","time_elapsed":67191,"trial_index":0,"trial_type":"survey-multi-choice","responses":"{\"Q0\":\"I consent to participate\"}","rt":67183},{"randomScores":[3375,32,3394,28,3373,5,3350,3378,26,38],"randomQuestions":["What gives something it's taste? Does pyrite taste like table salt because they are both cubes?","Why do some alcoholics suffer life threatening withdrawl symptoms while others with the same drinking habits don't when they quit?","Why do typical spray pump bottles of cologne or perfume evaporate quickly when left on their side or \"tipped over,\" but not while upright?","Why is the consistency of my ice cream different when it melts and I refreeze it?","What make some objects 'bouncier' than others?","Why do your eyelids get puffy after crying?","How does the body separates water from stomach acid?","Why is CPR for drowning different than CPR for people who collapse from heart problems? (e.g rescue breaths are recommended for one but not the other)","How do scientists know what the global temperature was millions of years ago?","Why aren't other animals as freaked out by bugs and creepy crawlies as humans?"],"condition":"highB","randomJudgements":["How confident are you that you know the correct answer to this question?","How curious are you about the answer to this question?","How popular do you think this question is in this social forum?","How well-written do you think this question is?","To what extent would knowing the answer to this question be useful to you in the future?"],"internal_node_id":"0.0-1.0","time_elapsed":70949,"trial_index":1,"trial_type":"instructions","rt":2756,"view_history":"[{\"page_index\":0,\"viewing_time\":2756}]"},{"randomScores":[3375,32,3394,28,3373,5,3350,3378,26,38],"randomQuestions":["What gives something it's taste? Does pyrite taste like table salt because they are both cubes?","Why do some alcoholics suffer life threatening withdrawl symptoms while others with the same drinking habits don't when they quit?","Why do typical spray pump bottles of cologne or perfume evaporate quickly when left on their side or \"tipped over,\" but not while upright?","Why is the consistency of my ice cream different when it melts and I refreeze it?","What make some objects 'bouncier' than others?","Why do your eyelids get puffy after crying?","How does the body separates water from stomach acid?","Why is CPR for drowning different than CPR for people who collapse from heart problems? (e.g rescue breaths are recommended for one but not the other)","How do scientists know what the global temperature was millions of years ago?","Why aren't other animals as freaked out by bugs and creepy crawlies as humans?"],"condition":"highB","randomJudgements":["How confident are you that you know the correct answer to this question?","How curious are you about the answer to this question?","How popular do you think this question is in this social forum?","How well-written do you think this question is?","To what extent would knowing the answer to this question be useful to you in the future?"],"internal_node_id":"0.0-2.0-0.0","time_elapsed":85764,"trial_index":2,"trial_type":"survey-likert","responses":"{\"Q0\":\"0\",\"Q1\":\"1\",\"Q2\":\"5\",\"Q3\":\"3\",\"Q4\":\"0\"}","rt":13804},{"randomScores":[3375,32,3394,28,3373,5,3350,3378,26,38],"randomQuestions":["What gives something it's taste? Does pyrite taste like table salt because they are both cubes?","Why do some alcoholics suffer life threatening withdrawl symptoms while others with the same drinking habits don't when they quit?","Why do typical spray pump bottles of cologne or perfume evaporate quickly when left on their side or \"tipped over,\" but not while upright?","Why is the consistency of my ice cream different when it melts and I refreeze it?","What make some objects 'bouncier' than others?","Why do your eyelids get puffy after crying?","How does the body separates water from stomach acid?","Why is CPR for drowning different than CPR for people who collapse from heart problems? (e.g rescue breaths are recommended for one but not the other)","How do scientists know what the global temperature was millions of years ago?","Why aren't other animals as freaked out by bugs and creepy crawlies as humans?"],"condition":"highB","randomJudgements":["How confident are you that you know the correct answer to this question?","How curious are you about the answer to this question?","How popular do you think this question is in this social forum?","How well-written do you think this question is?","To what extent would knowing the answer to this question be useful to you in the future?"],"internal_node_id":"0.0-2.0-1.0","time_elapsed":95770,"trial_index":3,"trial_type":"survey-likert","responses":"{\"Q0\":\"0\",\"Q1\":\"0\",\"Q2\":\"0\",\"Q3\":\"4\",\"Q4\":\"4\"}","rt":8995},{"randomScores":[3375,32,3394,28,3373,5,3350,3378,26,38],"randomQuestions":["What gives something it's taste? Does pyrite taste like table salt because they are both cubes?","Why do some alcoholics suffer life threatening withdrawl symptoms while others with the same drinking habits don't when they quit?","Why do typical spray pump bottles of cologne or perfume evaporate quickly when left on their side or \"tipped over,\" but not while upright?","Why is the consistency of my ice cream different when it melts and I refreeze it?","What make some objects 'bouncier' than others?","Why do your eyelids get puffy after crying?","How does the body separates water from stomach acid?","Why is CPR for drowning different than CPR for people who collapse from heart problems? (e.g rescue breaths are recommended for one but not the other)","How do scientists know what the global temperature was millions of years ago?","Why aren't other animals as freaked out by bugs and creepy crawlies as humans?"],"condition":"highB","randomJudgements":["How confident are you that you know the correct answer to this question?","How curious are you about the answer to this question?","How popular do you think this question is in this social forum?","How well-written do you think this question is?","To what extent would knowing the answer to this question be useful to you in the future?"],"internal_node_id":"0.0-2.0-2.0","time_elapsed":104352,"trial_index":4,"trial_type":"survey-likert","responses":"{\"Q0\":\"0\",\"Q1\":\"0\",\"Q2\":\"5\",\"Q3\":\"3\",\"Q4\":\"0\"}","rt":7573},{"randomScores":[3375,32,3394,28,3373,5,3350,3378,26,38],"randomQuestions":["What gives something it's taste? Does pyrite taste like table salt because they are both cubes?","Why do some alcoholics suffer life threatening withdrawl symptoms while others with the same drinking habits don't when they quit?","Why do typical spray pump bottles of cologne or perfume evaporate quickly when left on their side or \"tipped over,\" but not while upright?","Why is the consistency of my ice cream different when it melts and I refreeze it?","What make some objects 'bouncier' than others?","Why do your eyelids get puffy after crying?","How does the body separates water from stomach acid?","Why is CPR for drowning different than CPR for people who collapse from heart problems? (e.g rescue breaths are recommended for one but not the other)","How do scientists know what the global temperature was millions of years ago?","Why aren't other animals as freaked out by bugs and creepy crawlies as humans?"],"condition":"highB","randomJudgements":["How confident are you that you know the correct answer to this question?","How curious are you about the answer to this question?","How popular do you think this question is in this social forum?","How well-written do you think this question is?","To what extent would knowing the answer to this question be useful to you in the future?"],"internal_node_id":"0.0-2.0-3.0","time_elapsed":113409,"trial_index":5,"trial_type":"survey-likert","responses":"{\"Q0\":\"0\",\"Q1\":\"0\",\"Q2\":\"0\",\"Q3\":\"5\",\"Q4\":\"0\"}","rt":8049},{"randomScores":[3375,32,3394,28,3373,5,3350,3378,26,38],"randomQuestions":["What gives something it's taste? Does pyrite taste like table salt because they are both cubes?","Why do some alcoholics suffer life threatening withdrawl symptoms while others with the same drinking habits don't when they quit?","Why do typical spray pump bottles of cologne or perfume evaporate quickly when left on their side or \"tipped over,\" but not while upright?","Why is the consistency of my ice cream different when it melts and I refreeze it?","What make some objects 'bouncier' than others?","Why do your eyelids get puffy after crying?","How does the body separates water from stomach acid?","Why is CPR for drowning different than CPR for people who collapse from heart problems? (e.g rescue breaths are recommended for one but not the other)","How do scientists know what the global temperature was millions of years ago?","Why aren't other animals as freaked out by bugs and creepy crawlies as humans?"],"condition":"highB","randomJudgements":["How confident are you that you know the correct answer to this question?","How curious are you about the answer to this question?","How popular do you think this question is in this social forum?","How well-written do you think this question is?","To what extent would knowing the answer to this question be useful to you in the future?"],"internal_node_id":"0.0-2.0-4.0","time_elapsed":122105,"trial_index":6,"trial_type":"survey-likert","responses":"{\"Q0\":\"0\",\"Q1\":\"0\",\"Q2\":\"5\",\"Q3\":\"5\",\"Q4\":\"0\"}","rt":7687},{"randomScores":[3375,32,3394,28,3373,5,3350,3378,26,38],"randomQuestions":["What gives something it's taste? Does pyrite taste like table salt because they are both cubes?","Why do some alcoholics suffer life threatening withdrawl symptoms while others with the same drinking habits don't when they quit?","Why do typical spray pump bottles of cologne or perfume evaporate quickly when left on their side or \"tipped over,\" but not while upright?","Why is the consistency of my ice cream different when it melts and I refreeze it?","What make some objects 'bouncier' than others?","Why do your eyelids get puffy after crying?","How does the body separates water from stomach acid?","Why is CPR for drowning different than CPR for people who collapse from heart problems? (e.g rescue breaths are recommended for one but not the other)","How do scientists know what the global temperature was millions of years ago?","Why aren't other animals as freaked out by bugs and creepy crawlies as humans?"],"condition":"highB","randomJudgements":["How confident are you that you know the correct answer to this question?","How curious are you about the answer to this question?","How popular do you think this question is in this social forum?","How well-written do you think this question is?","To what extent would knowing the answer to this question be useful to you in the future?"],"internal_node_id":"0.0-2.0-5.0","time_elapsed":129562,"trial_index":7,"trial_type":"survey-likert","responses":"{\"Q0\":\"0\",\"Q1\":\"0\",\"Q2\":\"0\",\"Q3\":\"4\",\"Q4\":\"0\"}","rt":6446},{"randomScores":[3375,32,3394,28,3373,5,3350,3378,26,38],"randomQuestions":["What gives something it's taste? Does pyrite taste like table salt because they are both cubes?","Why do some alcoholics suffer life threatening withdrawl symptoms while others with the same drinking habits don't when they quit?","Why do typical spray pump bottles of cologne or perfume evaporate quickly when left on their side or \"tipped over,\" but not while upright?","Why is the consistency of my ice cream different when it melts and I refreeze it?","What make some objects 'bouncier' than others?","Why do your eyelids get puffy after crying?","How does the body separates water from stomach acid?","Why is CPR for drowning different than CPR for people who collapse from heart problems? (e.g rescue breaths are recommended for one but not the other)","How do scientists know what the global temperature was millions of years ago?","Why aren't other animals as freaked out by bugs and creepy crawlies as humans?"],"condition":"highB","randomJudgements":["How confident are you that you know the correct answer to this question?","How curious are you about the answer to this question?","How popular do you think this question is in this social forum?","How well-written do you think this question is?","To what extent would knowing the answer to this question be useful to you in the future?"],"internal_node_id":"0.0-2.0-6.0","time_elapsed":139032,"trial_index":8,"trial_type":"survey-likert","responses":"{\"Q0\":\"0\",\"Q1\":\"0\",\"Q2\":\"5\",\"Q3\":\"5\",\"Q4\":\"0\"}","rt":8463},{"randomScores":[3375,32,3394,28,3373,5,3350,3378,26,38],"randomQuestions":["What gives something it's taste? Does pyrite taste like table salt because they are both cubes?","Why do some alcoholics suffer life threatening withdrawl symptoms while others with the same drinking habits don't when they quit?","Why do typical spray pump bottles of cologne or perfume evaporate quickly when left on their side or \"tipped over,\" but not while upright?","Why is the consistency of my ice cream different when it melts and I refreeze it?","What make some objects 'bouncier' than others?","Why do your eyelids get puffy after crying?","How does the body separates water from stomach acid?","Why is CPR for drowning different than CPR for people who collapse from heart problems? (e.g rescue breaths are recommended for one but not the other)","How do scientists know what the global temperature was millions of years ago?","Why aren't other animals as freaked out by bugs and creepy crawlies as humans?"],"condition":"highB","randomJudgements":["How confident are you that you know the correct answer to this question?","How curious are you about the answer to this question?","How popular do you think this question is in this social forum?","How well-written do you think this question is?","To what extent would knowing the answer to this question be useful to you in the future?"],"internal_node_id":"0.0-2.0-7.0","time_elapsed":147800,"trial_index":9,"trial_type":"survey-likert","responses":"{\"Q0\":\"0\",\"Q1\":\"0\",\"Q2\":\"5\",\"Q3\":\"6\",\"Q4\":\"3\"}","rt":7759},{"randomScores":[3375,32,3394,28,3373,5,3350,3378,26,38],"randomQuestions":["What gives something it's taste? Does pyrite taste like table salt because they are both cubes?","Why do some alcoholics suffer life threatening withdrawl symptoms while others with the same drinking habits don't when they quit?","Why do typical spray pump bottles of cologne or perfume evaporate quickly when left on their side or \"tipped over,\" but not while upright?","Why is the consistency of my ice cream different when it melts and I refreeze it?","What make some objects 'bouncier' than others?","Why do your eyelids get puffy after crying?","How does the body separates water from stomach acid?","Why is CPR for drowning different than CPR for people who collapse from heart problems? (e.g rescue breaths are recommended for one but not the other)","How do scientists know what the global temperature was millions of years ago?","Why aren't other animals as freaked out by bugs and creepy crawlies as humans?"],"condition":"highB","randomJudgements":["How confident are you that you know the correct answer to this question?","How curious are you about the answer to this question?","How popular do you think this question is in this social forum?","How well-written do you think this question is?","To what extent would knowing the answer to this question be useful to you in the future?"],"internal_node_id":"0.0-2.0-8.0","time_elapsed":152535,"trial_index":10,"trial_type":"survey-likert","responses":"{\"Q0\":\"0\",\"Q1\":\"0\",\"Q2\":\"0\",\"Q3\":\"5\",\"Q4\":\"0\"}","rt":3727},{"randomScores":[3375,32,3394,28,3373,5,3350,3378,26,38],"randomQuestions":["What gives something it's taste? Does pyrite taste like table salt because they are both cubes?","Why do some alcoholics suffer life threatening withdrawl symptoms while others with the same drinking habits don't when they quit?","Why do typical spray pump bottles of cologne or perfume evaporate quickly when left on their side or \"tipped over,\" but not while upright?","Why is the consistency of my ice cream different when it melts and I refreeze it?","What make some objects 'bouncier' than others?","Why do your eyelids get puffy after crying?","How does the body separates water from stomach acid?","Why is CPR for drowning different than CPR for people who collapse from heart problems? (e.g rescue breaths are recommended for one but not the other)","How do scientists know what the global temperature was millions of years ago?","Why aren't other animals as freaked out by bugs and creepy crawlies as humans?"],"condition":"highB","randomJudgements":["How confident are you that you know the correct answer to this question?","How curious are you about the answer to this question?","How popular do you think this question is in this social forum?","How well-written do you think this question is?","To what extent would knowing the answer to this question be useful to you in the future?"],"internal_node_id":"0.0-2.0-9.0","time_elapsed":157061,"trial_index":11,"trial_type":"survey-likert","responses":"{\"Q0\":\"0\",\"Q1\":\"0\",\"Q2\":\"0\",\"Q3\":\"3\",\"Q4\":\"0\"}","rt":3518},{"randomScores":[3375,32,3394,28,3373,5,3350,3378,26,38],"randomQuestions":["What gives something it's taste? Does pyrite taste like table salt because they are both cubes?","Why do some alcoholics suffer life threatening withdrawl symptoms while others with the same drinking habits don't when they quit?","Why do typical spray pump bottles of cologne or perfume evaporate quickly when left on their side or \"tipped over,\" but not while upright?","Why is the consistency of my ice cream different when it melts and I refreeze it?","What make some objects 'bouncier' than others?","Why do your eyelids get puffy after crying?","How does the body separates water from stomach acid?","Why is CPR for drowning different than CPR for people who collapse from heart problems? (e.g rescue breaths are recommended for one but not the other)","How do scientists know what the global temperature was millions of years ago?","Why aren't other animals as freaked out by bugs and creepy crawlies as humans?"],"condition":"highB","randomJudgements":["How confident are you that you know the correct answer to this question?","How curious are you about the answer to this question?","How popular do you think this question is in this social forum?","How well-written do you think this question is?","To what extent would knowing the answer to this question be useful to you in the future?"],"internal_node_id":"0.0-3.0","time_elapsed":162648,"trial_index":12,"trial_type":"instructions","rt":4586,"view_history":"[{\"page_index\":0,\"viewing_time\":4586}]"},{"randomScores":[3375,32,3394,28,3373,5,3350,3378,26,38],"randomQuestions":["What gives something it's taste? Does pyrite taste like table salt because they are both cubes?","Why do some alcoholics suffer life threatening withdrawl symptoms while others with the same drinking habits don't when they quit?","Why do typical spray pump bottles of cologne or perfume evaporate quickly when left on their side or \"tipped over,\" but not while upright?","Why is the consistency of my ice cream different when it melts and I refreeze it?","What make some objects 'bouncier' than others?","Why do your eyelids get puffy after crying?","How does the body separates water from stomach acid?","Why is CPR for drowning different than CPR for people who collapse from heart problems? (e.g rescue breaths are recommended for one but not the other)","How do scientists know what the global temperature was millions of years ago?","Why aren't other animals as freaked out by bugs and creepy crawlies as humans?"],"condition":"highB","randomJudgements":["How confident are you that you know the correct answer to this question?","How curious are you about the answer to this question?","How popular do you think this question is in this social forum?","How well-written do you think this question is?","To what extent would knowing the answer to this question be useful to you in the future?"],"internal_node_id":"0.0-4.0","time_elapsed":189286,"trial_index":13,"trial_type":"survey-multi-choose","responses":"{\"Q0\":\"Reveal Answer\",\"Q1\":\"Keep Hidden\",\"Q2\":\"Reveal Answer\",\"Q3\":\"Keep Hidden\",\"Q4\":\"Reveal Answer\",\"Q5\":\"Keep Hidden\",\"Q6\":\"Reveal Answer\",\"Q7\":\"Reveal Answer\",\"Q8\":\"Keep Hidden\",\"Q9\":\"Keep Hidden\"}","rt":25603},{"randomScores":[3375,32,3394,28,3373,5,3350,3378,26,38],"randomQuestions":["What gives something it's taste? Does pyrite taste like table salt because they are both cubes?","Why do some alcoholics suffer life threatening withdrawl symptoms while others with the same drinking habits don't when they quit?","Why do typical spray pump bottles of cologne or perfume evaporate quickly when left on their side or \"tipped over,\" but not while upright?","Why is the consistency of my ice cream different when it melts and I refreeze it?","What make some objects 'bouncier' than others?","Why do your eyelids get puffy after crying?","How does the body separates water from stomach acid?","Why is CPR for drowning different than CPR for people who collapse from heart problems? (e.g rescue breaths are recommended for one but not the other)","How do scientists know what the global temperature was millions of years ago?","Why aren't other animals as freaked out by bugs and creepy crawlies as humans?"],"condition":"highB","randomJudgements":["How confident are you that you know the correct answer to this question?","How curious are you about the answer to this question?","How popular do you think this question is in this social forum?","How well-written do you think this question is?","To what extent would knowing the answer to this question be useful to you in the future?"],"internal_node_id":"0.0-5.0","time_elapsed":193726,"trial_index":14,"trial_type":"instructions","rt":3417,"view_history":"[{\"page_index\":0,\"viewing_time\":3416}]"}],"__v":0}
{"_id":{"$oid":"5a496247d9d00c000415ad08"},"data":[{"randomScores":[3363,3368,3359,3381,3365,26,40,26,36,38],"randomQuestions":["Why is the consistency of my ice cream different when it melts and I refreeze it?","Why aren't other animals as freaked out by bugs and creepy crawlies as humans?","How do scientists know what the global temperature was millions of years ago?","Why do some alcoholics suffer life threatening withdrawl symptoms while others with the same drinking habits don't when they quit?","Why do your eyelids get puffy after crying?","What make some objects 'bouncier' than others?","Why is CPR for drowning different than CPR for people who collapse from heart problems? (e.g rescue breaths are recommended for one but not the other)","How does the body separates water from stomach acid?","Why do typical spray pump bottles of cologne or perfume evaporate quickly when left on their side or \"tipped over,\" but not while upright?","What gives something it's taste? Does pyrite taste like table salt because they are both cubes?"],"condition":"highA","randomJudgements":["How curious are you about the answer to this question?","How popular do you think this question is in this social forum?","To what extent would knowing the answer to this question be useful to you in the future?","How well-written do you think this question is?","How confident are you that you know the correct answer to this question?"],"internal_node_id":"0.0-0.0","time_elapsed":5814,"trial_index":0,"trial_type":"survey-multi-choice","responses":"{\"Q0\":\"I consent to participate\"}","rt":5804},{"randomScores":[3363,3368,3359,3381,3365,26,40,26,36,38],"randomQuestions":["Why is the consistency of my ice cream different when it melts and I refreeze it?","Why aren't other animals as freaked out by bugs and creepy crawlies as humans?","How do scientists know what the global temperature was millions of years ago?","Why do some alcoholics suffer life threatening withdrawl symptoms while others with the same drinking habits don't when they quit?","Why do your eyelids get puffy after crying?","What make some objects 'bouncier' than others?","Why is CPR for drowning different than CPR for people who collapse from heart problems? (e.g rescue breaths are recommended for one but not the other)","How does the body separates water from stomach acid?","Why do typical spray pump bottles of cologne or perfume evaporate quickly when left on their side or \"tipped over,\" but not while upright?","What gives something it's taste? Does pyrite taste like table salt because they are both cubes?"],"condition":"highA","randomJudgements":["How curious are you about the answer to this question?","How popular do you think this question is in this social forum?","To what extent would knowing the answer to this question be useful to you in the future?","How well-written do you think this question is?","How confident are you that you know the correct answer to this question?"],"internal_node_id":"0.0-1.0","time_elapsed":12492,"trial_index":1,"trial_type":"instructions","rt":5677,"view_history":"[{\"page_index\":0,\"viewing_time\":5677}]"},{"randomScores":[3363,3368,3359,3381,3365,26,40,26,36,38],"randomQuestions":["Why is the consistency of my ice cream different when it melts and I refreeze it?","Why aren't other animals as freaked out by bugs and creepy crawlies as humans?","How do scientists know what the global temperature was millions of years ago?","Why do some alcoholics suffer life threatening withdrawl symptoms while others with the same drinking habits don't when they quit?","Why do your eyelids get puffy after crying?","What make some objects 'bouncier' than others?","Why is CPR for drowning different than CPR for people who collapse from heart problems? (e.g rescue breaths are recommended for one but not the other)","How does the body separates water from stomach acid?","Why do typical spray pump bottles of cologne or perfume evaporate quickly when left on their side or \"tipped over,\" but not while upright?","What gives something it's taste? Does pyrite taste like table salt because they are both cubes?"],"condition":"highA","randomJudgements":["How curious are you about the answer to this question?","How popular do you think this question is in this social forum?","To what extent would knowing the answer to this question be useful to you in the future?","How well-written do you think this question is?","How confident are you that you know the correct answer to this question?"],"internal_node_id":"0.0-2.0-0.0","time_elapsed":51254,"trial_index":2,"trial_type":"survey-likert","responses":"{\"Q0\":\"4\",\"Q1\":\"3\",\"Q2\":\"4\",\"Q3\":\"5\",\"Q4\":\"6\"}","rt":37757},{"randomScores":[3363,3368,3359,3381,3365,26,40,26,36,38],"randomQuestions":["Why is the consistency of my ice cream different when it melts and I refreeze it?","Why aren't other animals as freaked out by bugs and creepy crawlies as humans?","How do scientists know what the global temperature was millions of years ago?","Why do some alcoholics suffer life threatening withdrawl symptoms while others with the same drinking habits don't when they quit?","Why do your eyelids get puffy after crying?","What make some objects 'bouncier' than others?","Why is CPR for drowning different than CPR for people who collapse from heart problems? (e.g rescue breaths are recommended for one but not the other)","How does the body separates water from stomach acid?","Why do typical spray pump bottles of cologne or perfume evaporate quickly when left on their side or \"tipped over,\" but not while upright?","What gives something it's taste? Does pyrite taste like table salt because they are both cubes?"],"condition":"highA","randomJudgements":["How curious are you about the answer to this question?","How popular do you think this question is in this social forum?","To what extent would knowing the answer to this question be useful to you in the future?","How well-written do you think this question is?","How confident are you that you know the correct answer to this question?"],"internal_node_id":"0.0-2.0-1.0","time_elapsed":73356,"trial_index":3,"trial_type":"survey-likert","responses":"{\"Q0\":\"4\",\"Q1\":\"4\",\"Q2\":\"3\",\"Q3\":\"4\",\"Q4\":\"4\"}","rt":21098},{"randomScores":[3363,3368,3359,3381,3365,26,40,26,36,38],"randomQuestions":["Why is the consistency of my ice cream different when it melts and I refreeze it?","Why aren't other animals as freaked out by bugs and creepy crawlies as humans?","How do scientists know what the global temperature was millions of years ago?","Why do some alcoholics suffer life threatening withdrawl symptoms while others with the same drinking habits don't when they quit?","Why do your eyelids get puffy after crying?","What make some objects 'bouncier' than others?","Why is CPR for drowning different than CPR for people who collapse from heart problems? (e.g rescue breaths are recommended for one but not the other)","How does the body separates water from stomach acid?","Why do typical spray pump bottles of cologne or perfume evaporate quickly when left on their side or \"tipped over,\" but not while upright?","What gives something it's taste? Does pyrite taste like table salt because they are both cubes?"],"condition":"highA","randomJudgements":["How curious are you about the answer to this question?","How popular do you think this question is in this social forum?","To what extent would knowing the answer to this question be useful to you in the future?","How well-written do you think this question is?","How confident are you that you know the correct answer to this question?"],"internal_node_id":"0.0-2.0-2.0","time_elapsed":91396,"trial_index":4,"trial_type":"survey-likert","responses":"{\"Q0\":\"6\",\"Q1\":\"4\",\"Q2\":\"5\",\"Q3\":\"5\",\"Q4\":\"4\"}","rt":17036},{"randomScores":[3363,3368,3359,3381,3365,26,40,26,36,38],"randomQuestions":["Why is the consistency of my ice cream different when it melts and I refreeze it?","Why aren't other animals as freaked out by bugs and creepy crawlies as humans?","How do scientists know what the global temperature was millions of years ago?","Why do some alcoholics suffer life threatening withdrawl symptoms while others with the same drinking habits don't when they quit?","Why do your eyelids get puffy after crying?","What make some objects 'bouncier' than others?","Why is CPR for drowning different than CPR for people who collapse from heart problems? (e.g rescue breaths are recommended for one but not the other)","How does the body separates water from stomach acid?","Why do typical spray pump bottles of cologne or perfume evaporate quickly when left on their side or \"tipped over,\" but not while upright?","What gives something it's taste? Does pyrite taste like table salt because they are both cubes?"],"condition":"highA","randomJudgements":["How curious are you about the answer to this question?","How popular do you think this question is in this social forum?","To what extent would knowing the answer to this question be useful to you in the future?","How well-written do you think this question is?","How confident are you that you know the correct answer to this question?"],"internal_node_id":"0.0-2.0-3.0","time_elapsed":105436,"trial_index":5,"trial_type":"survey-likert","responses":"{\"Q0\":\"5\",\"Q1\":\"4\",\"Q2\":\"5\",\"Q3\":\"5\",\"Q4\":\"4\"}","rt":13036},{"randomScores":[3363,3368,3359,3381,3365,26,40,26,36,38],"randomQuestions":["Why is the consistency of my ice cream different when it melts and I refreeze it?","Why aren't other animals as freaked out by bugs and creepy crawlies as humans?","How do scientists know what the global temperature was millions of years ago?","Why do some alcoholics suffer life threatening withdrawl symptoms while others with the same drinking habits don't when they quit?","Why do your eyelids get puffy after crying?","What make some objects 'bouncier' than others?","Why is CPR for drowning different than CPR for people who collapse from heart problems? (e.g rescue breaths are recommended for one but not the other)","How does the body separates water from stomach acid?","Why do typical spray pump bottles of cologne or perfume evaporate quickly when left on their side or \"tipped over,\" but not while upright?","What gives something it's taste? Does pyrite taste like table salt because they are both cubes?"],"condition":"highA","randomJudgements":["How curious are you about the answer to this question?","How popular do you think this question is in this social forum?","To what extent would knowing the answer to this question be useful to you in the future?","How well-written do you think this question is?","How confident are you that you know the correct answer to this question?"],"internal_node_id":"0.0-2.0-4.0","time_elapsed":121420,"trial_index":6,"trial_type":"survey-likert","responses":"{\"Q0\":\"4\",\"Q1\":\"4\",\"Q2\":\"3\",\"Q3\":\"4\",\"Q4\":\"3\"}","rt":14981},{"randomScores":[3363,3368,3359,3381,3365,26,40,26,36,38],"randomQuestions":["Why is the consistency of my ice cream different when it melts and I refreeze it?","Why aren't other animals as freaked out by bugs and creepy crawlies as humans?","How do scientists know what the global temperature was millions of years ago?","Why do some alcoholics suffer life threatening withdrawl symptoms while others with the same drinking habits don't when they quit?","Why do your eyelids get puffy after crying?","What make some objects 'bouncier' than others?","Why is CPR for drowning different than CPR for people who collapse from heart problems? (e.g rescue breaths are recommended for one but not the other)","How does the body separates water from stomach acid?","Why do typical spray pump bottles of cologne or perfume evaporate quickly when left on their side or \"tipped over,\" but not while upright?","What gives something it's taste? Does pyrite taste like table salt because they are both cubes?"],"condition":"highA","randomJudgements":["How curious are you about the answer to this question?","How popular do you think this question is in this social forum?","To what extent would knowing the answer to this question be useful to you in the future?","How well-written do you think this question is?","How confident are you that you know the correct answer to this question?"],"internal_node_id":"0.0-2.0-5.0","time_elapsed":137388,"trial_index":7,"trial_type":"survey-likert","responses":"{\"Q0\":\"4\",\"Q1\":\"3\",\"Q2\":\"2\",\"Q3\":\"2\",\"Q4\":\"3\"}","rt":14964},{"randomScores":[3363,3368,3359,3381,3365,26,40,26,36,38],"randomQuestions":["Why is the consistency of my ice cream different when it melts and I refreeze it?","Why aren't other animals as freaked out by bugs and creepy crawlies as humans?","How do scientists know what the global temperature was millions of years ago?","Why do some alcoholics suffer life threatening withdrawl symptoms while others with the same drinking habits don't when they quit?","Why do your eyelids get puffy after crying?","What make some objects 'bouncier' than others?","Why is CPR for drowning different than CPR for people who collapse from heart problems? (e.g rescue breaths are recommended for one but not the other)","How does the body separates water from stomach acid?","Why do typical spray pump bottles of cologne or perfume evaporate quickly when left on their side or \"tipped over,\" but not while upright?","What gives something it's taste? Does pyrite taste like table salt because they are both cubes?"],"condition":"highA","randomJudgements":["How curious are you about the answer to this question?","How popular do you think this question is in this social forum?","To what extent would knowing the answer to this question be useful to you in the future?","How well-written do you think this question is?","How confident are you that you know the correct answer to this question?"],"internal_node_id":"0.0-2.0-6.0","time_elapsed":158692,"trial_index":8,"trial_type":"survey-likert","responses":"{\"Q0\":\"6\",\"Q1\":\"5\",\"Q2\":\"6\",\"Q3\":\"6\",\"Q4\":\"2\"}","rt":20301},{"randomScores":[3363,3368,3359,3381,3365,26,40,26,36,38],"randomQuestions":["Why is the consistency of my ice cream different when it melts and I refreeze it?","Why aren't other animals as freaked out by bugs and creepy crawlies as humans?","How do scientists know what the global temperature was millions of years ago?","Why do some alcoholics suffer life threatening withdrawl symptoms while others with the same drinking habits don't when they quit?","Why do your eyelids get puffy after crying?","What make some objects 'bouncier' than others?","Why is CPR for drowning different than CPR for people who collapse from heart problems? (e.g rescue breaths are recommended for one but not the other)","How does the body separates water from stomach acid?","Why do typical spray pump bottles of cologne or perfume evaporate quickly when left on their side or \"tipped over,\" but not while upright?","What gives something it's taste? Does pyrite taste like table salt because they are both cubes?"],"condition":"highA","randomJudgements":["How curious are you about the answer to this question?","How popular do you think this question is in this social forum?","To what extent would knowing the answer to this question be useful to you in the future?","How well-written do you think this question is?","How confident are you that you know the correct answer to this question?"],"internal_node_id":"0.0-2.0-7.0","time_elapsed":177404,"trial_index":9,"trial_type":"survey-likert","responses":"{\"Q0\":\"4\",\"Q1\":\"4\",\"Q2\":\"5\",\"Q3\":\"5\",\"Q4\":\"3\"}","rt":17709},{"randomScores":[3363,3368,3359,3381,3365,26,40,26,36,38],"randomQuestions":["Why is the consistency of my ice cream different when it melts and I refreeze it?","Why aren't other animals as freaked out by bugs and creepy crawlies as humans?","How do scientists know what the global temperature was millions of years ago?","Why do some alcoholics suffer life threatening withdrawl symptoms while others with the same drinking habits don't when they quit?","Why do your eyelids get puffy after crying?","What make some objects 'bouncier' than others?","Why is CPR for drowning different than CPR for people who collapse from heart problems? (e.g rescue breaths are recommended for one but not the other)","How does the body separates water from stomach acid?","Why do typical spray pump bottles of cologne or perfume evaporate quickly when left on their side or \"tipped over,\" but not while upright?","What gives something it's taste? Does pyrite taste like table salt because they are both cubes?"],"condition":"highA","randomJudgements":["How curious are you about the answer to this question?","How popular do you think this question is in this social forum?","To what extent would knowing the answer to this question be useful to you in the future?","How well-written do you think this question is?","How confident are you that you know the correct answer to this question?"],"internal_node_id":"0.0-2.0-8.0","time_elapsed":197867,"trial_index":10,"trial_type":"survey-likert","responses":"{\"Q0\":\"5\",\"Q1\":\"5\",\"Q2\":\"3\",\"Q3\":\"4\",\"Q4\":\"2\"}","rt":19461},{"randomScores":[3363,3368,3359,3381,3365,26,40,26,36,38],"randomQuestions":["Why is the consistency of my ice cream different when it melts and I refreeze it?","Why aren't other animals as freaked out by bugs and creepy crawlies as humans?","How do scientists know what the global temperature was millions of years ago?","Why do some alcoholics suffer life threatening withdrawl symptoms while others with the same drinking habits don't when they quit?","Why do your eyelids get puffy after crying?","What make some objects 'bouncier' than others?","Why is CPR for drowning different than CPR for people who collapse from heart problems? (e.g rescue breaths are recommended for one but not the other)","How does the body separates water from stomach acid?","Why do typical spray pump bottles of cologne or perfume evaporate quickly when left on their side or \"tipped over,\" but not while upright?","What gives something it's taste? Does pyrite taste like table salt because they are both cubes?"],"condition":"highA","randomJudgements":["How curious are you about the answer to this question?","How popular do you think this question is in this social forum?","To what extent would knowing the answer to this question be useful to you in the future?","How well-written do you think this question is?","How confident are you that you know the correct answer to this question?"],"internal_node_id":"0.0-2.0-9.0","time_elapsed":217819,"trial_index":11,"trial_type":"survey-likert","responses":"{\"Q0\":\"3\",\"Q1\":\"3\",\"Q2\":\"4\",\"Q3\":\"3\",\"Q4\":\"3\"}","rt":18948},{"randomScores":[3363,3368,3359,3381,3365,26,40,26,36,38],"randomQuestions":["Why is the consistency of my ice cream different when it melts and I refreeze it?","Why aren't other animals as freaked out by bugs and creepy crawlies as humans?","How do scientists know what the global temperature was millions of years ago?","Why do some alcoholics suffer life threatening withdrawl symptoms while others with the same drinking habits don't when they quit?","Why do your eyelids get puffy after crying?","What make some objects 'bouncier' than others?","Why is CPR for drowning different than CPR for people who collapse from heart problems? (e.g rescue breaths are recommended for one but not the other)","How does the body separates water from stomach acid?","Why do typical spray pump bottles of cologne or perfume evaporate quickly when left on their side or \"tipped over,\" but not while upright?","What gives something it's taste? Does pyrite taste like table salt because they are both cubes?"],"condition":"highA","randomJudgements":["How curious are you about the answer to this question?","How popular do you think this question is in this social forum?","To what extent would knowing the answer to this question be useful to you in the future?","How well-written do you think this question is?","How confident are you that you know the correct answer to this question?"],"internal_node_id":"0.0-3.0","time_elapsed":223194,"trial_index":12,"trial_type":"instructions","rt":4374,"view_history":"[{\"page_index\":0,\"viewing_time\":4374}]"},{"randomScores":[3363,3368,3359,3381,3365,26,40,26,36,38],"randomQuestions":["Why is the consistency of my ice cream different when it melts and I refreeze it?","Why aren't other animals as freaked out by bugs and creepy crawlies as humans?","How do scientists know what the global temperature was millions of years ago?","Why do some alcoholics suffer life threatening withdrawl symptoms while others with the same drinking habits don't when they quit?","Why do your eyelids get puffy after crying?","What make some objects 'bouncier' than others?","Why is CPR for drowning different than CPR for people who collapse from heart problems? (e.g rescue breaths are recommended for one but not the other)","How does the body separates water from stomach acid?","Why do typical spray pump bottles of cologne or perfume evaporate quickly when left on their side or \"tipped over,\" but not while upright?","What gives something it's taste? Does pyrite taste like table salt because they are both cubes?"],"condition":"highA","randomJudgements":["How curious are you about the answer to this question?","How popular do you think this question is in this social forum?","To what extent would knowing the answer to this question be useful to you in the future?","How well-written do you think this question is?","How confident are you that you know the correct answer to this question?"],"internal_node_id":"0.0-4.0","time_elapsed":264387,"trial_index":13,"trial_type":"survey-multi-choose","responses":"{\"Q0\":\"Keep Hidden\",\"Q1\":\"Reveal Answer\",\"Q2\":\"Keep Hidden\",\"Q3\":\"Keep Hidden\",\"Q4\":\"Keep Hidden\",\"Q5\":\"Keep Hidden\",\"Q6\":\"Reveal Answer\",\"Q7\":\"Reveal Answer\",\"Q8\":\"Reveal Answer\",\"Q9\":\"Reveal Answer\"}","rt":40183},{"randomScores":[3363,3368,3359,3381,3365,26,40,26,36,38],"randomQuestions":["Why is the consistency of my ice cream different when it melts and I refreeze it?","Why aren't other animals as freaked out by bugs and creepy crawlies as humans?","How do scientists know what the global temperature was millions of years ago?","Why do some alcoholics suffer life threatening withdrawl symptoms while others with the same drinking habits don't when they quit?","Why do your eyelids get puffy after crying?","What make some objects 'bouncier' than others?","Why is CPR for drowning different than CPR for people who collapse from heart problems? (e.g rescue breaths are recommended for one but not the other)","How does the body separates water from stomach acid?","Why do typical spray pump bottles of cologne or perfume evaporate quickly when left on their side or \"tipped over,\" but not while upright?","What gives something it's taste? Does pyrite taste like table salt because they are both cubes?"],"condition":"highA","randomJudgements":["How curious are you about the answer to this question?","How popular do you think this question is in this social forum?","To what extent would knowing the answer to this question be useful to you in the future?","How well-written do you think this question is?","How confident are you that you know the correct answer to this question?"],"internal_node_id":"0.0-5.0","time_elapsed":298643,"trial_index":14,"trial_type":"instructions","rt":33249,"view_history":"[{\"page_index\":0,\"viewing_time\":33249}]"}],"__v":0}
{"_id":{"$oid":"5a49625ed9d00c000415ad09"},"data":[{"randomScores":[34,3376,36,3355,3365,20,3365,16,3364,34],"randomQuestions":["How do scientists know what the global temperature was millions of years ago?","How does the body separates water from stomach acid?","Why do your eyelids get puffy after crying?","Why is CPR for drowning different than CPR for people who collapse from heart problems? (e.g rescue breaths are recommended for one but not the other)","Why do typical spray pump bottles of cologne or perfume evaporate quickly when left on their side or \"tipped over,\" but not while upright?","Why aren't other animals as freaked out by bugs and creepy crawlies as humans?","What make some objects 'bouncier' than others?","Why is the consistency of my ice cream different when it melts and I refreeze it?","What gives something it's taste? Does pyrite taste like table salt because they are both cubes?","Why do some alcoholics suffer life threatening withdrawl symptoms while others with the same drinking habits don't when they quit?"],"condition":"highB","randomJudgements":["To what extent would knowing the answer to this question be useful to you in the future?","How well-written do you think this question is?","How popular do you think this question is in this social forum?","How confident are you that you know the correct answer to this question?","How curious are you about the answer to this question?"],"internal_node_id":"0.0-0.0","time_elapsed":106829,"trial_index":0,"trial_type":"survey-multi-choice","responses":"{\"Q0\":\"I consent to participate\"}","rt":106810},{"randomScores":[34,3376,36,3355,3365,20,3365,16,3364,34],"randomQuestions":["How do scientists know what the global temperature was millions of years ago?","How does the body separates water from stomach acid?","Why do your eyelids get puffy after crying?","Why is CPR for drowning different than CPR for people who collapse from heart problems? (e.g rescue breaths are recommended for one but not the other)","Why do typical spray pump bottles of cologne or perfume evaporate quickly when left on their side or \"tipped over,\" but not while upright?","Why aren't other animals as freaked out by bugs and creepy crawlies as humans?","What make some objects 'bouncier' than others?","Why is the consistency of my ice cream different when it melts and I refreeze it?","What gives something it's taste? Does pyrite taste like table salt because they are both cubes?","Why do some alcoholics suffer life threatening withdrawl symptoms while others with the same drinking habits don't when they quit?"],"condition":"highB","randomJudgements":["To what extent would knowing the answer to this question be useful to you in the future?","How well-written do you think this question is?","How popular do you think this question is in this social forum?","How confident are you that you know the correct answer to this question?","How curious are you about the answer to this question?"],"internal_node_id":"0.0-1.0","time_elapsed":111416,"trial_index":1,"trial_type":"instructions","rt":3576,"view_history":"[{\"page_index\":0,\"viewing_time\":3574}]"},{"randomScores":[34,3376,36,3355,3365,20,3365,16,3364,34],"randomQuestions":["How do scientists know what the global temperature was millions of years ago?","How does the body separates water from stomach acid?","Why do your eyelids get puffy after crying?","Why is CPR for drowning different than CPR for people who collapse from heart problems? (e.g rescue breaths are recommended for one but not the other)","Why do typical spray pump bottles of cologne or perfume evaporate quickly when left on their side or \"tipped over,\" but not while upright?","Why aren't other animals as freaked out by bugs and creepy crawlies as humans?","What make some objects 'bouncier' than others?","Why is the consistency of my ice cream different when it melts and I refreeze it?","What gives something it's taste? Does pyrite taste like table salt because they are both cubes?","Why do some alcoholics suffer life threatening withdrawl symptoms while others with the same drinking habits don't when they quit?"],"condition":"highB","randomJudgements":["To what extent would knowing the answer to this question be useful to you in the future?","How well-written do you think this question is?","How popular do you think this question is in this social forum?","How confident are you that you know the correct answer to this question?","How curious are you about the answer to this question?"],"internal_node_id":"0.0-2.0-0.0","time_elapsed":136945,"trial_index":2,"trial_type":"survey-likert","responses":"{\"Q0\":\"0\",\"Q1\":\"4\",\"Q2\":\"2\",\"Q3\":\"0\",\"Q4\":\"0\"}","rt":24503},{"randomScores":[34,3376,36,3355,3365,20,3365,16,3364,34],"randomQuestions":["How do scientists know what the global temperature was millions of years ago?","How does the body separates water from stomach acid?","Why do your eyelids get puffy after crying?","Why is CPR for drowning different than CPR for people who collapse from heart problems? (e.g rescue breaths are recommended for one but not the other)","Why do typical spray pump bottles of cologne or perfume evaporate quickly when left on their side or \"tipped over,\" but not while upright?","Why aren't other animals as freaked out by bugs and creepy crawlies as humans?","What make some objects 'bouncier' than others?","Why is the consistency of my ice cream different when it melts and I refreeze it?","What gives something it's taste? Does pyrite taste like table salt because they are both cubes?","Why do some alcoholics suffer life threatening withdrawl symptoms while others with the same drinking habits don't when they quit?"],"condition":"highB","randomJudgements":["To what extent would knowing the answer to this question be useful to you in the future?","How well-written do you think this question is?","How popular do you think this question is in this social forum?","How confident are you that you know the correct answer to this question?","How curious are you about the answer to this question?"],"internal_node_id":"0.0-2.0-1.0","time_elapsed":154109,"trial_index":3,"trial_type":"survey-likert","responses":"{\"Q0\":\"1\",\"Q1\":\"2\",\"Q2\":\"1\",\"Q3\":\"0\",\"Q4\":\"0\"}","rt":16147},{"randomScores":[34,3376,36,3355,3365,20,3365,16,3364,34],"randomQuestions":["How do scientists know what the global temperature was millions of years ago?","How does the body separates water from stomach acid?","Why do your eyelids get puffy after crying?","Why is CPR for drowning different than CPR for people who collapse from heart problems? (e.g rescue breaths are recommended for one but not the other)","Why do typical spray pump bottles of cologne or perfume evaporate quickly when left on their side or \"tipped over,\" but not while upright?","Why aren't other animals as freaked out by bugs and creepy crawlies as humans?","What make some objects 'bouncier' than others?","Why is the consistency of my ice cream different when it melts and I refreeze it?","What gives something it's taste? Does pyrite taste like table salt because they are both cubes?","Why do some alcoholics suffer life threatening withdrawl symptoms while others with the same drinking habits don't when they quit?"],"condition":"highB","randomJudgements":["To what extent would knowing the answer to this question be useful to you in the future?","How well-written do you think this question is?","How popular do you think this question is in this social forum?","How confident are you that you know the correct answer to this question?","How curious are you about the answer to this question?"],"internal_node_id":"0.0-2.0-2.0","time_elapsed":169172,"trial_index":4,"trial_type":"survey-likert","responses":"{\"Q0\":\"3\",\"Q1\":\"4\",\"Q2\":\"0\",\"Q3\":\"0\",\"Q4\":\"0\"}","rt":14048},{"randomScores":[34,3376,36,3355,3365,20,3365,16,3364,34],"randomQuestions":["How do scientists know what the global temperature was millions of years ago?","How does the body separates water from stomach acid?","Why do your eyelids get puffy after crying?","Why is CPR for drowning different than CPR for people who collapse from heart problems? (e.g rescue breaths are recommended for one but not the other)","Why do typical spray pump bottles of cologne or perfume evaporate quickly when left on their side or \"tipped over,\" but not while upright?","Why aren't other animals as freaked out by bugs and creepy crawlies as humans?","What make some objects 'bouncier' than others?","Why is the consistency of my ice cream different when it melts and I refreeze it?","What gives something it's taste? Does pyrite taste like table salt because they are both cubes?","Why do some alcoholics suffer life threatening withdrawl symptoms while others with the same drinking habits don't when they quit?"],"condition":"highB","randomJudgements":["To what extent would knowing the answer to this question be useful to you in the future?","How well-written do you think this question is?","How popular do you think this question is in this social forum?","How confident are you that you know the correct answer to this question?","How curious are you about the answer to this question?"],"internal_node_id":"0.0-2.0-3.0","time_elapsed":183890,"trial_index":5,"trial_type":"survey-likert","responses":"{\"Q0\":\"4\",\"Q1\":\"4\",\"Q2\":\"1\",\"Q3\":\"0\",\"Q4\":\"0\"}","rt":13706},{"randomScores":[34,3376,36,3355,3365,20,3365,16,3364,34],"randomQuestions":["How do scientists know what the global temperature was millions of years ago?","How does the body separates water from stomach acid?","Why do your eyelids get puffy after crying?","Why is CPR for drowning different than CPR for people who collapse from heart problems? (e.g rescue breaths are recommended for one but not the other)","Why do typical spray pump bottles of cologne or perfume evaporate quickly when left on their side or \"tipped over,\" but not while upright?","Why aren't other animals as freaked out by bugs and creepy crawlies as humans?","What make some objects 'bouncier' than others?","Why is the consistency of my ice cream different when it melts and I refreeze it?","What gives something it's taste? Does pyrite taste like table salt because they are both cubes?","Why do some alcoholics suffer life threatening withdrawl symptoms while others with the same drinking habits don't when they quit?"],"condition":"highB","randomJudgements":["To what extent would knowing the answer to this question be useful to you in the future?","How well-written do you think this question is?","How popular do you think this question is in this social forum?","How confident are you that you know the correct answer to this question?","How curious are you about the answer to this question?"],"internal_node_id":"0.0-2.0-4.0","time_elapsed":198483,"trial_index":6,"trial_type":"survey-likert","responses":"{\"Q0\":\"1\",\"Q1\":\"3\",\"Q2\":\"3\",\"Q3\":\"0\",\"Q4\":\"0\"}","rt":13578},{"randomScores":[34,3376,36,3355,3365,20,3365,16,3364,34],"randomQuestions":["How do scientists know what the global temperature was millions of years ago?","How does the body separates water from stomach acid?","Why do your eyelids get puffy after crying?","Why is CPR for drowning different than CPR for people who collapse from heart problems? (e.g rescue breaths are recommended for one but not the other)","Why do typical spray pump bottles of cologne or perfume evaporate quickly when left on their side or \"tipped over,\" but not while upright?","Why aren't other animals as freaked out by bugs and creepy crawlies as humans?","What make some objects 'bouncier' than others?","Why is the consistency of my ice cream different when it melts and I refreeze it?","What gives something it's taste? Does pyrite taste like table salt because they are both cubes?","Why do some alcoholics suffer life threatening withdrawl symptoms while others with the same drinking habits don't when they quit?"],"condition":"highB","randomJudgements":["To what extent would knowing the answer to this question be useful to you in the future?","How well-written do you think this question is?","How popular do you think this question is in this social forum?","How confident are you that you know the correct answer to this question?","How curious are you about the answer to this question?"],"internal_node_id":"0.0-2.0-5.0","time_elapsed":215024,"trial_index":7,"trial_type":"survey-likert","responses":"{\"Q0\":\"0\",\"Q1\":\"3\",\"Q2\":\"0\",\"Q3\":\"0\",\"Q4\":\"0\"}","rt":15526},{"randomScores":[34,3376,36,3355,3365,20,3365,16,3364,34],"randomQuestions":["How do scientists know what the global temperature was millions of years ago?","How does the body separates water from stomach acid?","Why do your eyelids get puffy after crying?","Why is CPR for drowning different than CPR for people who collapse from heart problems? (e.g rescue breaths are recommended for one but not the other)","Why do typical spray pump bottles of cologne or perfume evaporate quickly when left on their side or \"tipped over,\" but not while upright?","Why aren't other animals as freaked out by bugs and creepy crawlies as humans?","What make some objects 'bouncier' than others?","Why is the consistency of my ice cream different when it melts and I refreeze it?","What gives something it's taste? Does pyrite taste like table salt because they are both cubes?","Why do some alcoholics suffer life threatening withdrawl symptoms while others with the same drinking habits don't when they quit?"],"condition":"highB","randomJudgements":["To what extent would knowing the answer to this question be useful to you in the future?","How well-written do you think this question is?","How popular do you think this question is in this social forum?","How confident are you that you know the correct answer to this question?","How curious are you about the answer to this question?"],"internal_node_id":"0.0-2.0-6.0","time_elapsed":230948,"trial_index":8,"trial_type":"survey-likert","responses":"{\"Q0\":\"1\",\"Q1\":\"4\",\"Q2\":\"5\",\"Q3\":\"0\",\"Q4\":\"0\"}","rt":14908},{"randomScores":[34,3376,36,3355,3365,20,3365,16,3364,34],"randomQuestions":["How do scientists know what the global temperature was millions of years ago?","How does the body separates water from stomach acid?","Why do your eyelids get puffy after crying?","Why is CPR for drowning different than CPR for people who collapse from heart problems? (e.g rescue breaths are recommended for one but not the other)","Why do typical spray pump bottles of cologne or perfume evaporate quickly when left on their side or \"tipped over,\" but not while upright?","Why aren't other animals as freaked out by bugs and creepy crawlies as humans?","What make some objects 'bouncier' than others?","Why is the consistency of my ice cream different when it melts and I refreeze it?","What gives something it's taste? Does pyrite taste like table salt because they are both cubes?","Why do some alcoholics suffer life threatening withdrawl symptoms while others with the same drinking habits don't when they quit?"],"condition":"highB","randomJudgements":["To what extent would knowing the answer to this question be useful to you in the future?","How well-written do you think this question is?","How popular do you think this question is in this social forum?","How confident are you that you know the correct answer to this question?","How curious are you about the answer to this question?"],"internal_node_id":"0.0-2.0-7.0","time_elapsed":245092,"trial_index":9,"trial_type":"survey-likert","responses":"{\"Q0\":\"3\",\"Q1\":\"3\",\"Q2\":\"0\",\"Q3\":\"0\",\"Q4\":\"0\"}","rt":13132},{"randomScores":[34,3376,36,3355,3365,20,3365,16,3364,34],"randomQuestions":["How do scientists know what the global temperature was millions of years ago?","How does the body separates water from stomach acid?","Why do your eyelids get puffy after crying?","Why is CPR for drowning different than CPR for people who collapse from heart problems? (e.g rescue breaths are recommended for one but not the other)","Why do typical spray pump bottles of cologne or perfume evaporate quickly when left on their side or \"tipped over,\" but not while upright?","Why aren't other animals as freaked out by bugs and creepy crawlies as humans?","What make some objects 'bouncier' than others?","Why is the consistency of my ice cream different when it melts and I refreeze it?","What gives something it's taste? Does pyrite taste like table salt because they are both cubes?","Why do some alcoholics suffer life threatening withdrawl symptoms while others with the same drinking habits don't when they quit?"],"condition":"highB","randomJudgements":["To what extent would knowing the answer to this question be useful to you in the future?","How well-written do you think this question is?","How popular do you think this question is in this social forum?","How confident are you that you know the correct answer to this question?","How curious are you about the answer to this question?"],"internal_node_id":"0.0-2.0-8.0","time_elapsed":258698,"trial_index":10,"trial_type":"survey-likert","responses":"{\"Q0\":\"0\",\"Q1\":\"5\",\"Q2\":\"5\",\"Q3\":\"0\",\"Q4\":\"0\"}","rt":12593},{"randomScores":[34,3376,36,3355,3365,20,3365,16,3364,34],"randomQuestions":["How do scientists know what the global temperature was millions of years ago?","How does the body separates water from stomach acid?","Why do your eyelids get puffy after crying?","Why is CPR for drowning different than CPR for people who collapse from heart problems? (e.g rescue breaths are recommended for one but not the other)","Why do typical spray pump bottles of cologne or perfume evaporate quickly when left on their side or \"tipped over,\" but not while upright?","Why aren't other animals as freaked out by bugs and creepy crawlies as humans?","What make some objects 'bouncier' than others?","Why is the consistency of my ice cream different when it melts and I refreeze it?","What gives something it's taste? Does pyrite taste like table salt because they are both cubes?","Why do some alcoholics suffer life threatening withdrawl symptoms while others with the same drinking habits don't when they quit?"],"condition":"highB","randomJudgements":["To what extent would knowing the answer to this question be useful to you in the future?","How well-written do you think this question is?","How popular do you think this question is in this social forum?","How confident are you that you know the correct answer to this question?","How curious are you about the answer to this question?"],"internal_node_id":"0.0-2.0-9.0","time_elapsed":277081,"trial_index":11,"trial_type":"survey-likert","responses":"{\"Q0\":\"2\",\"Q1\":\"4\",\"Q2\":\"0\",\"Q3\":\"0\",\"Q4\":\"0\"}","rt":17368},{"randomScores":[34,3376,36,3355,3365,20,3365,16,3364,34],"randomQuestions":["How do scientists know what the global temperature was millions of years ago?","How does the body separates water from stomach acid?","Why do your eyelids get puffy after crying?","Why is CPR for drowning different than CPR for people who collapse from heart problems? (e.g rescue breaths are recommended for one but not the other)","Why do typical spray pump bottles of cologne or perfume evaporate quickly when left on their side or \"tipped over,\" but not while upright?","Why aren't other animals as freaked out by bugs and creepy crawlies as humans?","What make some objects 'bouncier' than others?","Why is the consistency of my ice cream different when it melts and I refreeze it?","What gives something it's taste? Does pyrite taste like table salt because they are both cubes?","Why do some alcoholics suffer life threatening withdrawl symptoms while others with the same drinking habits don't when they quit?"],"condition":"highB","randomJudgements":["To what extent would knowing the answer to this question be useful to you in the future?","How well-written do you think this question is?","How popular do you think this question is in this social forum?","How confident are you that you know the correct answer to this question?","How curious are you about the answer to this question?"],"internal_node_id":"0.0-3.0","time_elapsed":282869,"trial_index":12,"trial_type":"instructions","rt":4784,"view_history":"[{\"page_index\":0,\"viewing_time\":4783}]"},{"randomScores":[34,3376,36,3355,3365,20,3365,16,3364,34],"randomQuestions":["How do scientists know what the global temperature was millions of years ago?","How does the body separates water from stomach acid?","Why do your eyelids get puffy after crying?","Why is CPR for drowning different than CPR for people who collapse from heart problems? (e.g rescue breaths are recommended for one but not the other)","Why do typical spray pump bottles of cologne or perfume evaporate quickly when left on their side or \"tipped over,\" but not while upright?","Why aren't other animals as freaked out by bugs and creepy crawlies as humans?","What make some objects 'bouncier' than others?","Why is the consistency of my ice cream different when it melts and I refreeze it?","What gives something it's taste? Does pyrite taste like table salt because they are both cubes?","Why do some alcoholics suffer life threatening withdrawl symptoms while others with the same drinking habits don't when they quit?"],"condition":"highB","randomJudgements":["To what extent would knowing the answer to this question be useful to you in the future?","How well-written do you think this question is?","How popular do you think this question is in this social forum?","How confident are you that you know the correct answer to this question?","How curious are you about the answer to this question?"],"internal_node_id":"0.0-4.0","time_elapsed":306460,"trial_index":13,"trial_type":"survey-multi-choose","responses":"{\"Q0\":\"Reveal Answer\",\"Q1\":\"Keep Hidden\",\"Q2\":\"Reveal Answer\",\"Q3\":\"Keep Hidden\",\"Q4\":\"Reveal Answer\",\"Q5\":\"Keep Hidden\",\"Q6\":\"Reveal Answer\",\"Q7\":\"Keep Hidden\",\"Q8\":\"Reveal Answer\",\"Q9\":\"Keep Hidden\"}","rt":22531},{"randomScores":[34,3376,36,3355,3365,20,3365,16,3364,34],"randomQuestions":["How do scientists know what the global temperature was millions of years ago?","How does the body separates water from stomach acid?","Why do your eyelids get puffy after crying?","Why is CPR for drowning different than CPR for people who collapse from heart problems? (e.g rescue breaths are recommended for one but not the other)","Why do typical spray pump bottles of cologne or perfume evaporate quickly when left on their side or \"tipped over,\" but not while upright?","Why aren't other animals as freaked out by bugs and creepy crawlies as humans?","What make some objects 'bouncier' than others?","Why is the consistency of my ice cream different when it melts and I refreeze it?","What gives something it's taste? Does pyrite taste like table salt because they are both cubes?","Why do some alcoholics suffer life threatening withdrawl symptoms while others with the same drinking habits don't when they quit?"],"condition":"highB","randomJudgements":["To what extent would knowing the answer to this question be useful to you in the future?","How well-written do you think this question is?","How popular do you think this question is in this social forum?","How confident are you that you know the correct answer to this question?","How curious are you about the answer to this question?"],"internal_node_id":"0.0-5.0","time_elapsed":322460,"trial_index":14,"trial_type":"instructions","rt":14957,"view_history":"[{\"page_index\":0,\"viewing_time\":14955}]"}],"__v":0}
