{"_id":{"$oid":"5aa46dad7150d00004258262"},"data":[{"control":false,"questionScores":[2403,2404,24,38,23,24,2424,2394,2411,38],"questionIndicies":[35,31,2,11,8,38,42,1,16,27],"judgmentIndicies":[1,2,0],"internal_node_id":"0.0-0.0","time_elapsed":2855,"trial_index":0,"trial_type":"survey-multi-choice","responses":"{\"Q0\":\"I consent to participate\"}","rt":2846},{"control":false,"questionScores":[2403,2404,24,38,23,24,2424,2394,2411,38],"questionIndicies":[35,31,2,11,8,38,42,1,16,27],"judgmentIndicies":[1,2,0],"internal_node_id":"0.0-1.0","time_elapsed":4592,"trial_index":1,"trial_type":"instructions","rt":735,"view_history":"[{\"page_index\":0,\"viewing_time\":734}]"},{"control":false,"questionScores":[2403,2404,24,38,23,24,2424,2394,2411,38],"questionIndicies":[35,31,2,11,8,38,42,1,16,27],"judgmentIndicies":[1,2,0],"internal_node_id":"0.0-2.0","time_elapsed":32572,"trial_index":2,"trial_type":"instructions","rt":26979,"view_history":"[{\"page_index\":0,\"viewing_time\":26979}]"},{"control":false,"questionScores":[2403,2404,24,38,23,24,2424,2394,2411,38],"questionIndicies":[35,31,2,11,8,38,42,1,16,27],"judgmentIndicies":[1,2,0],"internal_node_id":"0.0-3.0-0.0","time_elapsed":47157,"trial_index":3,"trial_type":"survey-likert","responses":"{\"Q0\":\"1\",\"Q1\":\"2\",\"Q2\":\"3\"}","rt":13571},{"control":false,"questionScores":[2403,2404,24,38,23,24,2424,2394,2411,38],"questionIndicies":[35,31,2,11,8,38,42,1,16,27],"judgmentIndicies":[1,2,0],"internal_node_id":"0.0-3.0-1.0","time_elapsed":55157,"trial_index":4,"trial_type":"survey-likert","responses":"{\"Q0\":\"1\",\"Q1\":\"2\",\"Q2\":\"1\"}","rt":6993},{"control":false,"questionScores":[2403,2404,24,38,23,24,2424,2394,2411,38],"questionIndicies":[35,31,2,11,8,38,42,1,16,27],"judgmentIndicies":[1,2,0],"internal_node_id":"0.0-3.0-2.0","time_elapsed":59990,"trial_index":5,"trial_type":"survey-likert","responses":"{\"Q0\":\"1\",\"Q1\":\"0\",\"Q2\":\"0\"}","rt":3821},{"control":false,"questionScores":[2403,2404,24,38,23,24,2424,2394,2411,38],"questionIndicies":[35,31,2,11,8,38,42,1,16,27],"judgmentIndicies":[1,2,0],"internal_node_id":"0.0-3.0-3.0","time_elapsed":65465,"trial_index":6,"trial_type":"survey-likert","responses":"{\"Q0\":\"2\",\"Q1\":\"2\",\"Q2\":\"1\"}","rt":4468},{"control":false,"questionScores":[2403,2404,24,38,23,24,2424,2394,2411,38],"questionIndicies":[35,31,2,11,8,38,42,1,16,27],"judgmentIndicies":[1,2,0],"internal_node_id":"0.0-3.0-4.0","time_elapsed":69670,"trial_index":7,"trial_type":"survey-likert","responses":"{\"Q0\":\"3\",\"Q1\":\"3\",\"Q2\":\"3\"}","rt":3199},{"control":false,"questionScores":[2403,2404,24,38,23,24,2424,2394,2411,38],"questionIndicies":[35,31,2,11,8,38,42,1,16,27],"judgmentIndicies":[1,2,0],"internal_node_id":"0.0-3.0-5.0","time_elapsed":74327,"trial_index":8,"trial_type":"survey-likert","responses":"{\"Q0\":\"4\",\"Q1\":\"4\",\"Q2\":\"5\"}","rt":3647},{"control":false,"questionScores":[2403,2404,24,38,23,24,2424,2394,2411,38],"questionIndicies":[35,31,2,11,8,38,42,1,16,27],"judgmentIndicies":[1,2,0],"internal_node_id":"0.0-3.0-6.0","time_elapsed":81814,"trial_index":9,"trial_type":"survey-likert","responses":"{\"Q0\":\"3\",\"Q1\":\"3\",\"Q2\":\"3\"}","rt":6479},{"control":false,"questionScores":[2403,2404,24,38,23,24,2424,2394,2411,38],"questionIndicies":[35,31,2,11,8,38,42,1,16,27],"judgmentIndicies":[1,2,0],"internal_node_id":"0.0-3.0-7.0","time_elapsed":86926,"trial_index":10,"trial_type":"survey-likert","responses":"{\"Q0\":\"2\",\"Q1\":\"1\",\"Q2\":\"0\"}","rt":4100},{"control":false,"questionScores":[2403,2404,24,38,23,24,2424,2394,2411,38],"questionIndicies":[35,31,2,11,8,38,42,1,16,27],"judgmentIndicies":[1,2,0],"internal_node_id":"0.0-3.0-8.0","time_elapsed":93050,"trial_index":11,"trial_type":"survey-likert","responses":"{\"Q0\":\"4\",\"Q1\":\"4\",\"Q2\":\"3\"}","rt":5114},{"control":false,"questionScores":[2403,2404,24,38,23,24,2424,2394,2411,38],"questionIndicies":[35,31,2,11,8,38,42,1,16,27],"judgmentIndicies":[1,2,0],"internal_node_id":"0.0-3.0-9.0","time_elapsed":98485,"trial_index":12,"trial_type":"survey-likert","responses":"{\"Q0\":\"3\",\"Q1\":\"2\",\"Q2\":\"1\"}","rt":4429}],"__v":0}
{"_id":{"$oid":"5aa46f057150d00004258263"},"data":[{"control":false,"questionScores":[2406,3,17,2414,25,34,2401,2406,27,2410],"questionIndicies":[8,26,35,23,42,9,16,3,5,34],"judgmentIndicies":[0,1,2],"internal_node_id":"0.0-0.0","time_elapsed":4234,"trial_index":0,"trial_type":"survey-multi-choice","responses":"{\"Q0\":\"I consent to participate\"}","rt":4226},{"control":false,"questionScores":[2406,3,17,2414,25,34,2401,2406,27,2410],"questionIndicies":[8,26,35,23,42,9,16,3,5,34],"judgmentIndicies":[0,1,2],"internal_node_id":"0.0-1.0","time_elapsed":6160,"trial_index":1,"trial_type":"instructions","rt":925,"view_history":"[{\"page_index\":0,\"viewing_time\":925}]"},{"control":false,"questionScores":[2406,3,17,2414,25,34,2401,2406,27,2410],"questionIndicies":[8,26,35,23,42,9,16,3,5,34],"judgmentIndicies":[0,1,2],"internal_node_id":"0.0-2.0","time_elapsed":13633,"trial_index":2,"trial_type":"instructions","rt":6473,"view_history":"[{\"page_index\":0,\"viewing_time\":6473}]"},{"control":false,"questionScores":[2406,3,17,2414,25,34,2401,2406,27,2410],"questionIndicies":[8,26,35,23,42,9,16,3,5,34],"judgmentIndicies":[0,1,2],"internal_node_id":"0.0-3.0-0.0","time_elapsed":27635,"trial_index":3,"trial_type":"survey-likert","responses":"{\"Q0\":\"4\",\"Q1\":\"2\",\"Q2\":\"4\"}","rt":12999},{"control":false,"questionScores":[2406,3,17,2414,25,34,2401,2406,27,2410],"questionIndicies":[8,26,35,23,42,9,16,3,5,34],"judgmentIndicies":[0,1,2],"internal_node_id":"0.0-3.0-1.0","time_elapsed":30732,"trial_index":4,"trial_type":"survey-likert","responses":"{\"Q0\":\"4\",\"Q1\":\"4\",\"Q2\":\"3\"}","rt":2092},{"control":false,"questionScores":[2406,3,17,2414,25,34,2401,2406,27,2410],"questionIndicies":[8,26,35,23,42,9,16,3,5,34],"judgmentIndicies":[0,1,2],"internal_node_id":"0.0-3.0-2.0","time_elapsed":41331,"trial_index":5,"trial_type":"survey-likert","responses":"{\"Q0\":\"4\",\"Q1\":\"4\",\"Q2\":\"4\"}","rt":9595},{"control":false,"questionScores":[2406,3,17,2414,25,34,2401,2406,27,2410],"questionIndicies":[8,26,35,23,42,9,16,3,5,34],"judgmentIndicies":[0,1,2],"internal_node_id":"0.0-3.0-3.0","time_elapsed":43779,"trial_index":6,"trial_type":"survey-likert","responses":"{\"Q0\":\"4\",\"Q1\":\"3\",\"Q2\":\"3\"}","rt":1445},{"control":false,"questionScores":[2406,3,17,2414,25,34,2401,2406,27,2410],"questionIndicies":[8,26,35,23,42,9,16,3,5,34],"judgmentIndicies":[0,1,2],"internal_node_id":"0.0-3.0-4.0","time_elapsed":46236,"trial_index":7,"trial_type":"survey-likert","responses":"{\"Q0\":\"2\",\"Q1\":\"3\",\"Q2\":\"3\"}","rt":1451},{"control":false,"questionScores":[2406,3,17,2414,25,34,2401,2406,27,2410],"questionIndicies":[8,26,35,23,42,9,16,3,5,34],"judgmentIndicies":[0,1,2],"internal_node_id":"0.0-3.0-5.0","time_elapsed":50764,"trial_index":8,"trial_type":"survey-likert","responses":"{\"Q0\":\"4\",\"Q1\":\"4\",\"Q2\":\"4\"}","rt":2933},{"control":false,"questionScores":[2406,3,17,2414,25,34,2401,2406,27,2410],"questionIndicies":[8,26,35,23,42,9,16,3,5,34],"judgmentIndicies":[0,1,2],"internal_node_id":"0.0-3.0-6.0","time_elapsed":93936,"trial_index":9,"trial_type":"survey-likert","responses":"{\"Q0\":\"2\",\"Q1\":\"2\",\"Q2\":\"4\"}","rt":42106},{"control":false,"questionScores":[2406,3,17,2414,25,34,2401,2406,27,2410],"questionIndicies":[8,26,35,23,42,9,16,3,5,34],"judgmentIndicies":[0,1,2],"internal_node_id":"0.0-3.0-7.0","time_elapsed":97214,"trial_index":10,"trial_type":"survey-likert","responses":"{\"Q0\":\"2\",\"Q1\":\"4\",\"Q2\":\"4\"}","rt":2277},{"control":false,"questionScores":[2406,3,17,2414,25,34,2401,2406,27,2410],"questionIndicies":[8,26,35,23,42,9,16,3,5,34],"judgmentIndicies":[0,1,2],"internal_node_id":"0.0-3.0-8.0","time_elapsed":101177,"trial_index":11,"trial_type":"survey-likert","responses":"{\"Q0\":\"3\",\"Q1\":\"4\",\"Q2\":\"4\"}","rt":2959},{"control":false,"questionScores":[2406,3,17,2414,25,34,2401,2406,27,2410],"questionIndicies":[8,26,35,23,42,9,16,3,5,34],"judgmentIndicies":[0,1,2],"internal_node_id":"0.0-3.0-9.0","time_elapsed":103481,"trial_index":12,"trial_type":"survey-likert","responses":"{\"Q0\":\"3\",\"Q1\":\"3\",\"Q2\":\"4\"}","rt":1304}],"__v":0}
{"_id":{"$oid":"5aa46f167150d00004258264"},"data":[{"control":false,"questionScores":[18,19,2395,31,2408,10,35,2419,2422,2399],"questionIndicies":[32,12,6,21,43,22,28,5,14,9],"judgmentIndicies":[0,1,2],"internal_node_id":"0.0-0.0","time_elapsed":5359,"trial_index":0,"trial_type":"survey-multi-choice","responses":"{\"Q0\":\"I consent to participate\"}","rt":5349},{"control":false,"questionScores":[18,19,2395,31,2408,10,35,2419,2422,2399],"questionIndicies":[32,12,6,21,43,22,28,5,14,9],"judgmentIndicies":[0,1,2],"internal_node_id":"0.0-1.0","time_elapsed":7637,"trial_index":1,"trial_type":"instructions","rt":1276,"view_history":"[{\"page_index\":0,\"viewing_time\":1275}]"},{"control":false,"questionScores":[18,19,2395,31,2408,10,35,2419,2422,2399],"questionIndicies":[32,12,6,21,43,22,28,5,14,9],"judgmentIndicies":[0,1,2],"internal_node_id":"0.0-2.0","time_elapsed":16117,"trial_index":2,"trial_type":"instructions","rt":7480,"view_history":"[{\"page_index\":0,\"viewing_time\":7480}]"},{"control":false,"questionScores":[18,19,2395,31,2408,10,35,2419,2422,2399],"questionIndicies":[32,12,6,21,43,22,28,5,14,9],"judgmentIndicies":[0,1,2],"internal_node_id":"0.0-3.0-0.0","time_elapsed":25206,"trial_index":3,"trial_type":"survey-likert","responses":"{\"Q0\":\"5\",\"Q1\":\"4\",\"Q2\":\"4\"}","rt":8084},{"control":false,"questionScores":[18,19,2395,31,2408,10,35,2419,2422,2399],"questionIndicies":[32,12,6,21,43,22,28,5,14,9],"judgmentIndicies":[0,1,2],"internal_node_id":"0.0-3.0-1.0","time_elapsed":33119,"trial_index":4,"trial_type":"survey-likert","responses":"{\"Q0\":\"4\",\"Q1\":\"5\",\"Q2\":\"5\"}","rt":6910},{"control":false,"questionScores":[18,19,2395,31,2408,10,35,2419,2422,2399],"questionIndicies":[32,12,6,21,43,22,28,5,14,9],"judgmentIndicies":[0,1,2],"internal_node_id":"0.0-3.0-2.0","time_elapsed":40911,"trial_index":5,"trial_type":"survey-likert","responses":"{\"Q0\":\"4\",\"Q1\":\"4\",\"Q2\":\"4\"}","rt":6790},{"control":false,"questionScores":[18,19,2395,31,2408,10,35,2419,2422,2399],"questionIndicies":[32,12,6,21,43,22,28,5,14,9],"judgmentIndicies":[0,1,2],"internal_node_id":"0.0-3.0-3.0","time_elapsed":48914,"trial_index":6,"trial_type":"survey-likert","responses":"{\"Q0\":\"1\",\"Q1\":\"0\",\"Q2\":\"0\"}","rt":6996},{"control":false,"questionScores":[18,19,2395,31,2408,10,35,2419,2422,2399],"questionIndicies":[32,12,6,21,43,22,28,5,14,9],"judgmentIndicies":[0,1,2],"internal_node_id":"0.0-3.0-4.0","time_elapsed":57670,"trial_index":7,"trial_type":"survey-likert","responses":"{\"Q0\":\"5\",\"Q1\":\"2\",\"Q2\":\"3\"}","rt":7753},{"control":false,"questionScores":[18,19,2395,31,2408,10,35,2419,2422,2399],"questionIndicies":[32,12,6,21,43,22,28,5,14,9],"judgmentIndicies":[0,1,2],"internal_node_id":"0.0-3.0-5.0","time_elapsed":68197,"trial_index":8,"trial_type":"survey-likert","responses":"{\"Q0\":\"4\",\"Q1\":\"3\",\"Q2\":\"4\"}","rt":9526},{"control":false,"questionScores":[18,19,2395,31,2408,10,35,2419,2422,2399],"questionIndicies":[32,12,6,21,43,22,28,5,14,9],"judgmentIndicies":[0,1,2],"internal_node_id":"0.0-3.0-6.0","time_elapsed":74468,"trial_index":9,"trial_type":"survey-likert","responses":"{\"Q0\":\"1\",\"Q1\":\"1\",\"Q2\":\"1\"}","rt":5267},{"control":false,"questionScores":[18,19,2395,31,2408,10,35,2419,2422,2399],"questionIndicies":[32,12,6,21,43,22,28,5,14,9],"judgmentIndicies":[0,1,2],"internal_node_id":"0.0-3.0-7.0","time_elapsed":83867,"trial_index":10,"trial_type":"survey-likert","responses":"{\"Q0\":\"4\",\"Q1\":\"4\",\"Q2\":\"4\"}","rt":8398},{"control":false,"questionScores":[18,19,2395,31,2408,10,35,2419,2422,2399],"questionIndicies":[32,12,6,21,43,22,28,5,14,9],"judgmentIndicies":[0,1,2],"internal_node_id":"0.0-3.0-8.0","time_elapsed":95063,"trial_index":11,"trial_type":"survey-likert","responses":"{\"Q0\":\"5\",\"Q1\":\"4\",\"Q2\":\"5\"}","rt":10192},{"control":false,"questionScores":[18,19,2395,31,2408,10,35,2419,2422,2399],"questionIndicies":[32,12,6,21,43,22,28,5,14,9],"judgmentIndicies":[0,1,2],"internal_node_id":"0.0-3.0-9.0","time_elapsed":106277,"trial_index":12,"trial_type":"survey-likert","responses":"{\"Q0\":\"5\",\"Q1\":\"3\",\"Q2\":\"4\"}","rt":10212}],"__v":0}
{"_id":{"$oid":"5aa46f307150d00004258265"},"data":[{"control":false,"questionScores":[15,12,2400,32,2404,23,22,2395,2416,2410],"questionIndicies":[29,15,19,2,47,18,4,49,14,46],"judgmentIndicies":[1,0,2],"internal_node_id":"0.0-0.0","time_elapsed":5471,"trial_index":0,"trial_type":"survey-multi-choice","responses":"{\"Q0\":\"I consent to participate\"}","rt":5454},{"control":false,"questionScores":[15,12,2400,32,2404,23,22,2395,2416,2410],"questionIndicies":[29,15,19,2,47,18,4,49,14,46],"judgmentIndicies":[1,0,2],"internal_node_id":"0.0-1.0","time_elapsed":7911,"trial_index":1,"trial_type":"instructions","rt":1438,"view_history":"[{\"page_index\":0,\"viewing_time\":1437}]"},{"control":false,"questionScores":[15,12,2400,32,2404,23,22,2395,2416,2410],"questionIndicies":[29,15,19,2,47,18,4,49,14,46],"judgmentIndicies":[1,0,2],"internal_node_id":"0.0-2.0","time_elapsed":13145,"trial_index":2,"trial_type":"instructions","rt":4233,"view_history":"[{\"page_index\":0,\"viewing_time\":4233}]"},{"control":false,"questionScores":[15,12,2400,32,2404,23,22,2395,2416,2410],"questionIndicies":[29,15,19,2,47,18,4,49,14,46],"judgmentIndicies":[1,0,2],"internal_node_id":"0.0-3.0-0.0","time_elapsed":28791,"trial_index":3,"trial_type":"survey-likert","responses":"{\"Q0\":\"2\",\"Q1\":\"6\",\"Q2\":\"4\"}","rt":14642},{"control":false,"questionScores":[15,12,2400,32,2404,23,22,2395,2416,2410],"questionIndicies":[29,15,19,2,47,18,4,49,14,46],"judgmentIndicies":[1,0,2],"internal_node_id":"0.0-3.0-1.0","time_elapsed":41327,"trial_index":4,"trial_type":"survey-likert","responses":"{\"Q0\":\"4\",\"Q1\":\"2\",\"Q2\":\"4\"}","rt":11532},{"control":false,"questionScores":[15,12,2400,32,2404,23,22,2395,2416,2410],"questionIndicies":[29,15,19,2,47,18,4,49,14,46],"judgmentIndicies":[1,0,2],"internal_node_id":"0.0-3.0-2.0","time_elapsed":52647,"trial_index":5,"trial_type":"survey-likert","responses":"{\"Q0\":\"5\",\"Q1\":\"4\",\"Q2\":\"6\"}","rt":10316},{"control":false,"questionScores":[15,12,2400,32,2404,23,22,2395,2416,2410],"questionIndicies":[29,15,19,2,47,18,4,49,14,46],"judgmentIndicies":[1,0,2],"internal_node_id":"0.0-3.0-3.0","time_elapsed":69151,"trial_index":6,"trial_type":"survey-likert","responses":"{\"Q0\":\"1\",\"Q1\":\"2\",\"Q2\":\"5\"}","rt":15500},{"control":false,"questionScores":[15,12,2400,32,2404,23,22,2395,2416,2410],"questionIndicies":[29,15,19,2,47,18,4,49,14,46],"judgmentIndicies":[1,0,2],"internal_node_id":"0.0-3.0-4.0","time_elapsed":80570,"trial_index":7,"trial_type":"survey-likert","responses":"{\"Q0\":\"3\",\"Q1\":\"4\",\"Q2\":\"6\"}","rt":10416},{"control":false,"questionScores":[15,12,2400,32,2404,23,22,2395,2416,2410],"questionIndicies":[29,15,19,2,47,18,4,49,14,46],"judgmentIndicies":[1,0,2],"internal_node_id":"0.0-3.0-5.0","time_elapsed":91231,"trial_index":8,"trial_type":"survey-likert","responses":"{\"Q0\":\"1\",\"Q1\":\"4\",\"Q2\":\"3\"}","rt":9658},{"control":false,"questionScores":[15,12,2400,32,2404,23,22,2395,2416,2410],"questionIndicies":[29,15,19,2,47,18,4,49,14,46],"judgmentIndicies":[1,0,2],"internal_node_id":"0.0-3.0-6.0","time_elapsed":103194,"trial_index":9,"trial_type":"survey-likert","responses":"{\"Q0\":\"2\",\"Q1\":\"3\",\"Q2\":\"3\"}","rt":10960},{"control":false,"questionScores":[15,12,2400,32,2404,23,22,2395,2416,2410],"questionIndicies":[29,15,19,2,47,18,4,49,14,46],"judgmentIndicies":[1,0,2],"internal_node_id":"0.0-3.0-7.0","time_elapsed":111591,"trial_index":10,"trial_type":"survey-likert","responses":"{\"Q0\":\"4\",\"Q1\":\"5\",\"Q2\":\"6\"}","rt":7393},{"control":false,"questionScores":[15,12,2400,32,2404,23,22,2395,2416,2410],"questionIndicies":[29,15,19,2,47,18,4,49,14,46],"judgmentIndicies":[1,0,2],"internal_node_id":"0.0-3.0-8.0","time_elapsed":118066,"trial_index":11,"trial_type":"survey-likert","responses":"{\"Q0\":\"4\",\"Q1\":\"5\",\"Q2\":\"6\"}","rt":5472},{"control":false,"questionScores":[15,12,2400,32,2404,23,22,2395,2416,2410],"questionIndicies":[29,15,19,2,47,18,4,49,14,46],"judgmentIndicies":[1,0,2],"internal_node_id":"0.0-3.0-9.0","time_elapsed":126891,"trial_index":12,"trial_type":"survey-likert","responses":"{\"Q0\":\"4\",\"Q1\":\"5\",\"Q2\":\"6\"}","rt":7821}],"__v":0}
{"_id":{"$oid":"5aa46f377150d00004258266"},"data":[{"control":false,"questionScores":[21,18,2417,2395,2410,48,23,2397,26,2408],"questionIndicies":[4,42,35,40,3,22,13,24,41,34],"judgmentIndicies":[2,1,0],"internal_node_id":"0.0-0.0","time_elapsed":3736,"trial_index":0,"trial_type":"survey-multi-choice","responses":"{\"Q0\":\"I consent to participate\"}","rt":3723},{"control":false,"questionScores":[21,18,2417,2395,2410,48,23,2397,26,2408],"questionIndicies":[4,42,35,40,3,22,13,24,41,34],"judgmentIndicies":[2,1,0],"internal_node_id":"0.0-1.0","time_elapsed":6319,"trial_index":1,"trial_type":"instructions","rt":1579,"view_history":"[{\"page_index\":0,\"viewing_time\":1578}]"},{"control":false,"questionScores":[21,18,2417,2395,2410,48,23,2397,26,2408],"questionIndicies":[4,42,35,40,3,22,13,24,41,34],"judgmentIndicies":[2,1,0],"internal_node_id":"0.0-2.0","time_elapsed":15716,"trial_index":2,"trial_type":"instructions","rt":8397,"view_history":"[{\"page_index\":0,\"viewing_time\":8397}]"},{"control":false,"questionScores":[21,18,2417,2395,2410,48,23,2397,26,2408],"questionIndicies":[4,42,35,40,3,22,13,24,41,34],"judgmentIndicies":[2,1,0],"internal_node_id":"0.0-3.0-0.0","time_elapsed":34326,"trial_index":3,"trial_type":"survey-likert","responses":"{\"Q0\":\"4\",\"Q1\":\"2\",\"Q2\":\"1\"}","rt":17582},{"control":false,"questionScores":[21,18,2417,2395,2410,48,23,2397,26,2408],"questionIndicies":[4,42,35,40,3,22,13,24,41,34],"judgmentIndicies":[2,1,0],"internal_node_id":"0.0-3.0-1.0","time_elapsed":44749,"trial_index":4,"trial_type":"survey-likert","responses":"{\"Q0\":\"3\",\"Q1\":\"2\",\"Q2\":\"0\"}","rt":9415},{"control":false,"questionScores":[21,18,2417,2395,2410,48,23,2397,26,2408],"questionIndicies":[4,42,35,40,3,22,13,24,41,34],"judgmentIndicies":[2,1,0],"internal_node_id":"0.0-3.0-2.0","time_elapsed":59540,"trial_index":5,"trial_type":"survey-likert","responses":"{\"Q0\":\"6\",\"Q1\":\"5\",\"Q2\":\"0\"}","rt":13784},{"control":false,"questionScores":[21,18,2417,2395,2410,48,23,2397,26,2408],"questionIndicies":[4,42,35,40,3,22,13,24,41,34],"judgmentIndicies":[2,1,0],"internal_node_id":"0.0-3.0-3.0","time_elapsed":69483,"trial_index":6,"trial_type":"survey-likert","responses":"{\"Q0\":\"6\",\"Q1\":\"6\",\"Q2\":\"0\"}","rt":8935},{"control":false,"questionScores":[21,18,2417,2395,2410,48,23,2397,26,2408],"questionIndicies":[4,42,35,40,3,22,13,24,41,34],"judgmentIndicies":[2,1,0],"internal_node_id":"0.0-3.0-4.0","time_elapsed":78195,"trial_index":7,"trial_type":"survey-likert","responses":"{\"Q0\":\"6\",\"Q1\":\"6\",\"Q2\":\"0\"}","rt":7702},{"control":false,"questionScores":[21,18,2417,2395,2410,48,23,2397,26,2408],"questionIndicies":[4,42,35,40,3,22,13,24,41,34],"judgmentIndicies":[2,1,0],"internal_node_id":"0.0-3.0-5.0","time_elapsed":88899,"trial_index":8,"trial_type":"survey-likert","responses":"{\"Q0\":\"3\",\"Q1\":\"2\",\"Q2\":\"0\"}","rt":9699},{"control":false,"questionScores":[21,18,2417,2395,2410,48,23,2397,26,2408],"questionIndicies":[4,42,35,40,3,22,13,24,41,34],"judgmentIndicies":[2,1,0],"internal_node_id":"0.0-3.0-6.0","time_elapsed":102393,"trial_index":9,"trial_type":"survey-likert","responses":"{\"Q0\":\"2\",\"Q1\":\"1\",\"Q2\":\"1\"}","rt":12487},{"control":false,"questionScores":[21,18,2417,2395,2410,48,23,2397,26,2408],"questionIndicies":[4,42,35,40,3,22,13,24,41,34],"judgmentIndicies":[2,1,0],"internal_node_id":"0.0-3.0-7.0","time_elapsed":114130,"trial_index":10,"trial_type":"survey-likert","responses":"{\"Q0\":\"6\",\"Q1\":\"6\",\"Q2\":\"0\"}","rt":10727},{"control":false,"questionScores":[21,18,2417,2395,2410,48,23,2397,26,2408],"questionIndicies":[4,42,35,40,3,22,13,24,41,34],"judgmentIndicies":[2,1,0],"internal_node_id":"0.0-3.0-8.0","time_elapsed":124122,"trial_index":11,"trial_type":"survey-likert","responses":"{\"Q0\":\"2\",\"Q1\":\"1\",\"Q2\":\"1\"}","rt":8985},{"control":false,"questionScores":[21,18,2417,2395,2410,48,23,2397,26,2408],"questionIndicies":[4,42,35,40,3,22,13,24,41,34],"judgmentIndicies":[2,1,0],"internal_node_id":"0.0-3.0-9.0","time_elapsed":131817,"trial_index":12,"trial_type":"survey-likert","responses":"{\"Q0\":\"6\",\"Q1\":\"6\",\"Q2\":\"0\"}","rt":6687}],"__v":0}
{"_id":{"$oid":"5aa46f4d7150d00004258267"},"data":[{"control":false,"questionScores":[2387,2396,31,23,2410,13,2419,34,2412,29],"questionIndicies":[43,32,46,31,17,4,36,26,29,15],"judgmentIndicies":[2,1,0],"internal_node_id":"0.0-0.0","time_elapsed":5010,"trial_index":0,"trial_type":"survey-multi-choice","responses":"{\"Q0\":\"I consent to participate\"}","rt":4999},{"control":false,"questionScores":[2387,2396,31,23,2410,13,2419,34,2412,29],"questionIndicies":[43,32,46,31,17,4,36,26,29,15],"judgmentIndicies":[2,1,0],"internal_node_id":"0.0-1.0","time_elapsed":8383,"trial_index":1,"trial_type":"instructions","rt":2373,"view_history":"[{\"page_index\":0,\"viewing_time\":2373}]"},{"control":false,"questionScores":[2387,2396,31,23,2410,13,2419,34,2412,29],"questionIndicies":[43,32,46,31,17,4,36,26,29,15],"judgmentIndicies":[2,1,0],"internal_node_id":"0.0-2.0","time_elapsed":47267,"trial_index":2,"trial_type":"instructions","rt":37882,"view_history":"[{\"page_index\":0,\"viewing_time\":37882}]"},{"control":false,"questionScores":[2387,2396,31,23,2410,13,2419,34,2412,29],"questionIndicies":[43,32,46,31,17,4,36,26,29,15],"judgmentIndicies":[2,1,0],"internal_node_id":"0.0-3.0-0.0","time_elapsed":62819,"trial_index":3,"trial_type":"survey-likert","responses":"{\"Q0\":\"6\",\"Q1\":\"6\",\"Q2\":\"6\"}","rt":14545},{"control":false,"questionScores":[2387,2396,31,23,2410,13,2419,34,2412,29],"questionIndicies":[43,32,46,31,17,4,36,26,29,15],"judgmentIndicies":[2,1,0],"internal_node_id":"0.0-3.0-1.0","time_elapsed":72472,"trial_index":4,"trial_type":"survey-likert","responses":"{\"Q0\":\"6\",\"Q1\":\"6\",\"Q2\":\"6\"}","rt":8649},{"control":false,"questionScores":[2387,2396,31,23,2410,13,2419,34,2412,29],"questionIndicies":[43,32,46,31,17,4,36,26,29,15],"judgmentIndicies":[2,1,0],"internal_node_id":"0.0-3.0-2.0","time_elapsed":86141,"trial_index":5,"trial_type":"survey-likert","responses":"{\"Q0\":\"0\",\"Q1\":\"0\",\"Q2\":\"0\"}","rt":12664},{"control":false,"questionScores":[2387,2396,31,23,2410,13,2419,34,2412,29],"questionIndicies":[43,32,46,31,17,4,36,26,29,15],"judgmentIndicies":[2,1,0],"internal_node_id":"0.0-3.0-3.0","time_elapsed":100402,"trial_index":6,"trial_type":"survey-likert","responses":"{\"Q0\":\"0\",\"Q1\":\"1\",\"Q2\":\"4\"}","rt":13256},{"control":false,"questionScores":[2387,2396,31,23,2410,13,2419,34,2412,29],"questionIndicies":[43,32,46,31,17,4,36,26,29,15],"judgmentIndicies":[2,1,0],"internal_node_id":"0.0-3.0-4.0","time_elapsed":107290,"trial_index":7,"trial_type":"survey-likert","responses":"{\"Q0\":\"6\",\"Q1\":\"6\",\"Q2\":\"6\"}","rt":5884},{"control":false,"questionScores":[2387,2396,31,23,2410,13,2419,34,2412,29],"questionIndicies":[43,32,46,31,17,4,36,26,29,15],"judgmentIndicies":[2,1,0],"internal_node_id":"0.0-3.0-5.0","time_elapsed":121861,"trial_index":8,"trial_type":"survey-likert","responses":"{\"Q0\":\"0\",\"Q1\":\"6\",\"Q2\":\"6\"}","rt":13566},{"control":false,"questionScores":[2387,2396,31,23,2410,13,2419,34,2412,29],"questionIndicies":[43,32,46,31,17,4,36,26,29,15],"judgmentIndicies":[2,1,0],"internal_node_id":"0.0-3.0-6.0","time_elapsed":133062,"trial_index":9,"trial_type":"survey-likert","responses":"{\"Q0\":\"6\",\"Q1\":\"6\",\"Q2\":\"6\"}","rt":10196},{"control":false,"questionScores":[2387,2396,31,23,2410,13,2419,34,2412,29],"questionIndicies":[43,32,46,31,17,4,36,26,29,15],"judgmentIndicies":[2,1,0],"internal_node_id":"0.0-3.0-7.0","time_elapsed":143765,"trial_index":10,"trial_type":"survey-likert","responses":"{\"Q0\":\"0\",\"Q1\":\"0\",\"Q2\":\"6\"}","rt":9699},{"control":false,"questionScores":[2387,2396,31,23,2410,13,2419,34,2412,29],"questionIndicies":[43,32,46,31,17,4,36,26,29,15],"judgmentIndicies":[2,1,0],"internal_node_id":"0.0-3.0-8.0","time_elapsed":151437,"trial_index":11,"trial_type":"survey-likert","responses":"{\"Q0\":\"6\",\"Q1\":\"6\",\"Q2\":\"3\"}","rt":6667},{"control":false,"questionScores":[2387,2396,31,23,2410,13,2419,34,2412,29],"questionIndicies":[43,32,46,31,17,4,36,26,29,15],"judgmentIndicies":[2,1,0],"internal_node_id":"0.0-3.0-9.0","time_elapsed":160526,"trial_index":12,"trial_type":"survey-likert","responses":"{\"Q0\":\"0\",\"Q1\":\"1\",\"Q2\":\"6\"}","rt":8086}],"__v":0}
{"_id":{"$oid":"5aa46f537150d00004258268"},"data":[{"control":false,"questionScores":[16,27,2405,12,33,21,2417,2400,2397,2392],"questionIndicies":[48,38,47,39,16,11,28,8,37,34],"judgmentIndicies":[2,1,0],"internal_node_id":"0.0-0.0","time_elapsed":3455,"trial_index":0,"trial_type":"survey-multi-choice","responses":"{\"Q0\":\"I consent to participate\"}","rt":3442},{"control":false,"questionScores":[16,27,2405,12,33,21,2417,2400,2397,2392],"questionIndicies":[48,38,47,39,16,11,28,8,37,34],"judgmentIndicies":[2,1,0],"internal_node_id":"0.0-1.0","time_elapsed":5785,"trial_index":1,"trial_type":"instructions","rt":1327,"view_history":"[{\"page_index\":0,\"viewing_time\":1326}]"},{"control":false,"questionScores":[16,27,2405,12,33,21,2417,2400,2397,2392],"questionIndicies":[48,38,47,39,16,11,28,8,37,34],"judgmentIndicies":[2,1,0],"internal_node_id":"0.0-2.0","time_elapsed":11075,"trial_index":2,"trial_type":"instructions","rt":4287,"view_history":"[{\"page_index\":0,\"viewing_time\":4286}]"},{"control":false,"questionScores":[16,27,2405,12,33,21,2417,2400,2397,2392],"questionIndicies":[48,38,47,39,16,11,28,8,37,34],"judgmentIndicies":[2,1,0],"internal_node_id":"0.0-3.0-0.0","time_elapsed":28019,"trial_index":3,"trial_type":"survey-likert","responses":"{\"Q0\":\"2\",\"Q1\":\"2\",\"Q2\":\"5\"}","rt":15936},{"control":false,"questionScores":[16,27,2405,12,33,21,2417,2400,2397,2392],"questionIndicies":[48,38,47,39,16,11,28,8,37,34],"judgmentIndicies":[2,1,0],"internal_node_id":"0.0-3.0-1.0","time_elapsed":38473,"trial_index":4,"trial_type":"survey-likert","responses":"{\"Q0\":\"3\",\"Q1\":\"2\",\"Q2\":\"3\"}","rt":9449},{"control":false,"questionScores":[16,27,2405,12,33,21,2417,2400,2397,2392],"questionIndicies":[48,38,47,39,16,11,28,8,37,34],"judgmentIndicies":[2,1,0],"internal_node_id":"0.0-3.0-2.0","time_elapsed":51105,"trial_index":5,"trial_type":"survey-likert","responses":"{\"Q0\":\"5\",\"Q1\":\"4\",\"Q2\":\"3\"}","rt":11625},{"control":false,"questionScores":[16,27,2405,12,33,21,2417,2400,2397,2392],"questionIndicies":[48,38,47,39,16,11,28,8,37,34],"judgmentIndicies":[2,1,0],"internal_node_id":"0.0-3.0-3.0","time_elapsed":61528,"trial_index":6,"trial_type":"survey-likert","responses":"{\"Q0\":\"1\",\"Q1\":\"2\",\"Q2\":\"3\"}","rt":9416},{"control":false,"questionScores":[16,27,2405,12,33,21,2417,2400,2397,2392],"questionIndicies":[48,38,47,39,16,11,28,8,37,34],"judgmentIndicies":[2,1,0],"internal_node_id":"0.0-3.0-4.0","time_elapsed":69638,"trial_index":7,"trial_type":"survey-likert","responses":"{\"Q0\":\"2\",\"Q1\":\"1\",\"Q2\":\"1\"}","rt":7104},{"control":false,"questionScores":[16,27,2405,12,33,21,2417,2400,2397,2392],"questionIndicies":[48,38,47,39,16,11,28,8,37,34],"judgmentIndicies":[2,1,0],"internal_node_id":"0.0-3.0-5.0","time_elapsed":82549,"trial_index":8,"trial_type":"survey-likert","responses":"{\"Q0\":\"1\",\"Q1\":\"2\",\"Q2\":\"2\"}","rt":11904},{"control":false,"questionScores":[16,27,2405,12,33,21,2417,2400,2397,2392],"questionIndicies":[48,38,47,39,16,11,28,8,37,34],"judgmentIndicies":[2,1,0],"internal_node_id":"0.0-3.0-6.0","time_elapsed":104168,"trial_index":9,"trial_type":"survey-likert","responses":"{\"Q0\":\"5\",\"Q1\":\"4\",\"Q2\":\"4\"}","rt":20613},{"control":false,"questionScores":[16,27,2405,12,33,21,2417,2400,2397,2392],"questionIndicies":[48,38,47,39,16,11,28,8,37,34],"judgmentIndicies":[2,1,0],"internal_node_id":"0.0-3.0-7.0","time_elapsed":115832,"trial_index":10,"trial_type":"survey-likert","responses":"{\"Q0\":\"5\",\"Q1\":\"5\",\"Q2\":\"4\"}","rt":10658},{"control":false,"questionScores":[16,27,2405,12,33,21,2417,2400,2397,2392],"questionIndicies":[48,38,47,39,16,11,28,8,37,34],"judgmentIndicies":[2,1,0],"internal_node_id":"0.0-3.0-8.0","time_elapsed":133931,"trial_index":11,"trial_type":"survey-likert","responses":"{\"Q0\":\"5\",\"Q1\":\"5\",\"Q2\":\"5\"}","rt":17091},{"control":false,"questionScores":[16,27,2405,12,33,21,2417,2400,2397,2392],"questionIndicies":[48,38,47,39,16,11,28,8,37,34],"judgmentIndicies":[2,1,0],"internal_node_id":"0.0-3.0-9.0","time_elapsed":143246,"trial_index":12,"trial_type":"survey-likert","responses":"{\"Q0\":\"5\",\"Q1\":\"4\",\"Q2\":\"4\"}","rt":8309}],"__v":0}
{"_id":{"$oid":"5aa46f557150d00004258269"},"data":[{"control":false,"questionScores":[34,41,2422,2402,19,2387,2394,2408,19,36],"questionIndicies":[34,49,6,44,0,4,7,46,12,5],"judgmentIndicies":[2,0,1],"internal_node_id":"0.0-0.0","time_elapsed":8434,"trial_index":0,"trial_type":"survey-multi-choice","responses":"{\"Q0\":\"I consent to participate\"}","rt":8428},{"control":false,"questionScores":[34,41,2422,2402,19,2387,2394,2408,19,36],"questionIndicies":[34,49,6,44,0,4,7,46,12,5],"judgmentIndicies":[2,0,1],"internal_node_id":"0.0-1.0","time_elapsed":17225,"trial_index":1,"trial_type":"instructions","rt":7789,"view_history":"[{\"page_index\":0,\"viewing_time\":7789}]"},{"control":false,"questionScores":[34,41,2422,2402,19,2387,2394,2408,19,36],"questionIndicies":[34,49,6,44,0,4,7,46,12,5],"judgmentIndicies":[2,0,1],"internal_node_id":"0.0-2.0","time_elapsed":28920,"trial_index":2,"trial_type":"instructions","rt":10695,"view_history":"[{\"page_index\":0,\"viewing_time\":10694}]"},{"control":false,"questionScores":[34,41,2422,2402,19,2387,2394,2408,19,36],"questionIndicies":[34,49,6,44,0,4,7,46,12,5],"judgmentIndicies":[2,0,1],"internal_node_id":"0.0-3.0-0.0","time_elapsed":59233,"trial_index":3,"trial_type":"survey-likert","responses":"{\"Q0\":\"1\",\"Q1\":\"3\",\"Q2\":\"1\"}","rt":29310},{"control":false,"questionScores":[34,41,2422,2402,19,2387,2394,2408,19,36],"questionIndicies":[34,49,6,44,0,4,7,46,12,5],"judgmentIndicies":[2,0,1],"internal_node_id":"0.0-3.0-1.0","time_elapsed":74160,"trial_index":4,"trial_type":"survey-likert","responses":"{\"Q0\":\"1\",\"Q1\":\"2\",\"Q2\":\"1\"}","rt":13923},{"control":false,"questionScores":[34,41,2422,2402,19,2387,2394,2408,19,36],"questionIndicies":[34,49,6,44,0,4,7,46,12,5],"judgmentIndicies":[2,0,1],"internal_node_id":"0.0-3.0-2.0","time_elapsed":91185,"trial_index":5,"trial_type":"survey-likert","responses":"{\"Q0\":\"4\",\"Q1\":\"3\",\"Q2\":\"4\"}","rt":16019},{"control":false,"questionScores":[34,41,2422,2402,19,2387,2394,2408,19,36],"questionIndicies":[34,49,6,44,0,4,7,46,12,5],"judgmentIndicies":[2,0,1],"internal_node_id":"0.0-3.0-3.0","time_elapsed":102072,"trial_index":6,"trial_type":"survey-likert","responses":"{\"Q0\":\"4\",\"Q1\":\"5\",\"Q2\":\"4\"}","rt":9885},{"control":false,"questionScores":[34,41,2422,2402,19,2387,2394,2408,19,36],"questionIndicies":[34,49,6,44,0,4,7,46,12,5],"judgmentIndicies":[2,0,1],"internal_node_id":"0.0-3.0-4.0","time_elapsed":113337,"trial_index":7,"trial_type":"survey-likert","responses":"{\"Q0\":\"1\",\"Q1\":\"2\",\"Q2\":\"1\"}","rt":10259},{"control":false,"questionScores":[34,41,2422,2402,19,2387,2394,2408,19,36],"questionIndicies":[34,49,6,44,0,4,7,46,12,5],"judgmentIndicies":[2,0,1],"internal_node_id":"0.0-3.0-5.0","time_elapsed":124161,"trial_index":8,"trial_type":"survey-likert","responses":"{\"Q0\":\"4\",\"Q1\":\"4\",\"Q2\":\"4\"}","rt":9819},{"control":false,"questionScores":[34,41,2422,2402,19,2387,2394,2408,19,36],"questionIndicies":[34,49,6,44,0,4,7,46,12,5],"judgmentIndicies":[2,0,1],"internal_node_id":"0.0-3.0-6.0","time_elapsed":134664,"trial_index":9,"trial_type":"survey-likert","responses":"{\"Q0\":\"4\",\"Q1\":\"2\",\"Q2\":\"4\"}","rt":9498},{"control":false,"questionScores":[34,41,2422,2402,19,2387,2394,2408,19,36],"questionIndicies":[34,49,6,44,0,4,7,46,12,5],"judgmentIndicies":[2,0,1],"internal_node_id":"0.0-3.0-7.0","time_elapsed":147273,"trial_index":10,"trial_type":"survey-likert","responses":"{\"Q0\":\"4\",\"Q1\":\"5\",\"Q2\":\"4\"}","rt":11604},{"control":false,"questionScores":[34,41,2422,2402,19,2387,2394,2408,19,36],"questionIndicies":[34,49,6,44,0,4,7,46,12,5],"judgmentIndicies":[2,0,1],"internal_node_id":"0.0-3.0-8.0","time_elapsed":161409,"trial_index":11,"trial_type":"survey-likert","responses":"{\"Q0\":\"0\",\"Q1\":\"1\",\"Q2\":\"0\"}","rt":13132},{"control":false,"questionScores":[34,41,2422,2402,19,2387,2394,2408,19,36],"questionIndicies":[34,49,6,44,0,4,7,46,12,5],"judgmentIndicies":[2,0,1],"internal_node_id":"0.0-3.0-9.0","time_elapsed":168409,"trial_index":12,"trial_type":"survey-likert","responses":"{\"Q0\":\"1\",\"Q1\":\"3\",\"Q2\":\"1\"}","rt":5994}],"__v":0}
{"_id":{"$oid":"5aa46f617150d0000425826a"},"data":[{"control":false,"questionScores":[22,15,41,2381,2406,18,2406,2404,37,2406],"questionIndicies":[11,2,1,37,34,10,33,5,0,43],"judgmentIndicies":[2,0,1],"internal_node_id":"0.0-0.0","time_elapsed":4595,"trial_index":0,"trial_type":"survey-multi-choice","responses":"{\"Q0\":\"I consent to participate\"}","rt":4575},{"control":false,"questionScores":[22,15,41,2381,2406,18,2406,2404,37,2406],"questionIndicies":[11,2,1,37,34,10,33,5,0,43],"judgmentIndicies":[2,0,1],"internal_node_id":"0.0-1.0","time_elapsed":8410,"trial_index":1,"trial_type":"instructions","rt":2813,"view_history":"[{\"page_index\":0,\"viewing_time\":2813}]"},{"control":false,"questionScores":[22,15,41,2381,2406,18,2406,2404,37,2406],"questionIndicies":[11,2,1,37,34,10,33,5,0,43],"judgmentIndicies":[2,0,1],"internal_node_id":"0.0-2.0","time_elapsed":16045,"trial_index":2,"trial_type":"instructions","rt":6634,"view_history":"[{\"page_index\":0,\"viewing_time\":6633}]"},{"control":false,"questionScores":[22,15,41,2381,2406,18,2406,2404,37,2406],"questionIndicies":[11,2,1,37,34,10,33,5,0,43],"judgmentIndicies":[2,0,1],"internal_node_id":"0.0-3.0-0.0","time_elapsed":33199,"trial_index":3,"trial_type":"survey-likert","responses":"{\"Q0\":\"0\",\"Q1\":\"0\",\"Q2\":\"0\"}","rt":16149},{"control":false,"questionScores":[22,15,41,2381,2406,18,2406,2404,37,2406],"questionIndicies":[11,2,1,37,34,10,33,5,0,43],"judgmentIndicies":[2,0,1],"internal_node_id":"0.0-3.0-1.0","time_elapsed":51107,"trial_index":4,"trial_type":"survey-likert","responses":"{\"Q0\":\"0\",\"Q1\":\"2\",\"Q2\":\"0\"}","rt":16902},{"control":false,"questionScores":[22,15,41,2381,2406,18,2406,2404,37,2406],"questionIndicies":[11,2,1,37,34,10,33,5,0,43],"judgmentIndicies":[2,0,1],"internal_node_id":"0.0-3.0-2.0","time_elapsed":61441,"trial_index":5,"trial_type":"survey-likert","responses":"{\"Q0\":\"1\",\"Q1\":\"0\",\"Q2\":\"1\"}","rt":9330},{"control":false,"questionScores":[22,15,41,2381,2406,18,2406,2404,37,2406],"questionIndicies":[11,2,1,37,34,10,33,5,0,43],"judgmentIndicies":[2,0,1],"internal_node_id":"0.0-3.0-3.0","time_elapsed":76929,"trial_index":6,"trial_type":"survey-likert","responses":"{\"Q0\":\"6\",\"Q1\":\"0\",\"Q2\":\"6\"}","rt":14481},{"control":false,"questionScores":[22,15,41,2381,2406,18,2406,2404,37,2406],"questionIndicies":[11,2,1,37,34,10,33,5,0,43],"judgmentIndicies":[2,0,1],"internal_node_id":"0.0-3.0-4.0","time_elapsed":90513,"trial_index":7,"trial_type":"survey-likert","responses":"{\"Q0\":\"6\",\"Q1\":\"3\",\"Q2\":\"6\"}","rt":12579},{"control":false,"questionScores":[22,15,41,2381,2406,18,2406,2404,37,2406],"questionIndicies":[11,2,1,37,34,10,33,5,0,43],"judgmentIndicies":[2,0,1],"internal_node_id":"0.0-3.0-5.0","time_elapsed":101012,"trial_index":8,"trial_type":"survey-likert","responses":"{\"Q0\":\"0\",\"Q1\":\"0\",\"Q2\":\"0\"}","rt":9494},{"control":false,"questionScores":[22,15,41,2381,2406,18,2406,2404,37,2406],"questionIndicies":[11,2,1,37,34,10,33,5,0,43],"judgmentIndicies":[2,0,1],"internal_node_id":"0.0-3.0-6.0","time_elapsed":122081,"trial_index":9,"trial_type":"survey-likert","responses":"{\"Q0\":\"6\",\"Q1\":\"0\",\"Q2\":\"5\"}","rt":20065},{"control":false,"questionScores":[22,15,41,2381,2406,18,2406,2404,37,2406],"questionIndicies":[11,2,1,37,34,10,33,5,0,43],"judgmentIndicies":[2,0,1],"internal_node_id":"0.0-3.0-7.0","time_elapsed":133083,"trial_index":10,"trial_type":"survey-likert","responses":"{\"Q0\":\"6\",\"Q1\":\"0\",\"Q2\":\"5\"}","rt":9998},{"control":false,"questionScores":[22,15,41,2381,2406,18,2406,2404,37,2406],"questionIndicies":[11,2,1,37,34,10,33,5,0,43],"judgmentIndicies":[2,0,1],"internal_node_id":"0.0-3.0-8.0","time_elapsed":144221,"trial_index":11,"trial_type":"survey-likert","responses":"{\"Q0\":\"1\",\"Q1\":\"0\",\"Q2\":\"1\"}","rt":10132},{"control":false,"questionScores":[22,15,41,2381,2406,18,2406,2404,37,2406],"questionIndicies":[11,2,1,37,34,10,33,5,0,43],"judgmentIndicies":[2,0,1],"internal_node_id":"0.0-3.0-9.0","time_elapsed":158419,"trial_index":12,"trial_type":"survey-likert","responses":"{\"Q0\":\"6\",\"Q1\":\"0\",\"Q2\":\"6\"}","rt":13195}],"__v":0}
{"_id":{"$oid":"5aa46f617150d0000425826b"},"data":[{"control":false,"questionScores":[19,2416,2425,15,2404,21,2405,28,51,2387],"questionIndicies":[38,16,13,29,20,34,44,9,41,27],"judgmentIndicies":[0,1,2],"internal_node_id":"0.0-0.0","time_elapsed":3490,"trial_index":0,"trial_type":"survey-multi-choice","responses":"{\"Q0\":\"I consent to participate\"}","rt":3482},{"control":false,"questionScores":[19,2416,2425,15,2404,21,2405,28,51,2387],"questionIndicies":[38,16,13,29,20,34,44,9,41,27],"judgmentIndicies":[0,1,2],"internal_node_id":"0.0-1.0","time_elapsed":5803,"trial_index":1,"trial_type":"instructions","rt":1311,"view_history":"[{\"page_index\":0,\"viewing_time\":1310}]"},{"control":false,"questionScores":[19,2416,2425,15,2404,21,2405,28,51,2387],"questionIndicies":[38,16,13,29,20,34,44,9,41,27],"judgmentIndicies":[0,1,2],"internal_node_id":"0.0-2.0","time_elapsed":11535,"trial_index":2,"trial_type":"instructions","rt":4731,"view_history":"[{\"page_index\":0,\"viewing_time\":4730}]"},{"control":false,"questionScores":[19,2416,2425,15,2404,21,2405,28,51,2387],"questionIndicies":[38,16,13,29,20,34,44,9,41,27],"judgmentIndicies":[0,1,2],"internal_node_id":"0.0-3.0-0.0","time_elapsed":43606,"trial_index":3,"trial_type":"survey-likert","responses":"{\"Q0\":\"4\",\"Q1\":\"4\",\"Q2\":\"2\"}","rt":31058},{"control":false,"questionScores":[19,2416,2425,15,2404,21,2405,28,51,2387],"questionIndicies":[38,16,13,29,20,34,44,9,41,27],"judgmentIndicies":[0,1,2],"internal_node_id":"0.0-3.0-1.0","time_elapsed":54213,"trial_index":4,"trial_type":"survey-likert","responses":"{\"Q0\":\"5\",\"Q1\":\"5\",\"Q2\":\"5\"}","rt":9606},{"control":false,"questionScores":[19,2416,2425,15,2404,21,2405,28,51,2387],"questionIndicies":[38,16,13,29,20,34,44,9,41,27],"judgmentIndicies":[0,1,2],"internal_node_id":"0.0-3.0-2.0","time_elapsed":64963,"trial_index":5,"trial_type":"survey-likert","responses":"{\"Q0\":\"2\",\"Q1\":\"4\",\"Q2\":\"5\"}","rt":9746},{"control":false,"questionScores":[19,2416,2425,15,2404,21,2405,28,51,2387],"questionIndicies":[38,16,13,29,20,34,44,9,41,27],"judgmentIndicies":[0,1,2],"internal_node_id":"0.0-3.0-3.0","time_elapsed":72744,"trial_index":6,"trial_type":"survey-likert","responses":"{\"Q0\":\"3\",\"Q1\":\"2\",\"Q2\":\"1\"}","rt":6774},{"control":false,"questionScores":[19,2416,2425,15,2404,21,2405,28,51,2387],"questionIndicies":[38,16,13,29,20,34,44,9,41,27],"judgmentIndicies":[0,1,2],"internal_node_id":"0.0-3.0-4.0","time_elapsed":87744,"trial_index":7,"trial_type":"survey-likert","responses":"{\"Q0\":\"3\",\"Q1\":\"5\",\"Q2\":\"5\"}","rt":13995},{"control":false,"questionScores":[19,2416,2425,15,2404,21,2405,28,51,2387],"questionIndicies":[38,16,13,29,20,34,44,9,41,27],"judgmentIndicies":[0,1,2],"internal_node_id":"0.0-3.0-5.0","time_elapsed":95539,"trial_index":8,"trial_type":"survey-likert","responses":"{\"Q0\":\"3\",\"Q1\":\"1\",\"Q2\":\"2\"}","rt":6789},{"control":false,"questionScores":[19,2416,2425,15,2404,21,2405,28,51,2387],"questionIndicies":[38,16,13,29,20,34,44,9,41,27],"judgmentIndicies":[0,1,2],"internal_node_id":"0.0-3.0-6.0","time_elapsed":101242,"trial_index":9,"trial_type":"survey-likert","responses":"{\"Q0\":\"4\",\"Q1\":\"4\",\"Q2\":\"5\"}","rt":4699},{"control":false,"questionScores":[19,2416,2425,15,2404,21,2405,28,51,2387],"questionIndicies":[38,16,13,29,20,34,44,9,41,27],"judgmentIndicies":[0,1,2],"internal_node_id":"0.0-3.0-7.0","time_elapsed":126861,"trial_index":10,"trial_type":"survey-likert","responses":"{\"Q0\":\"3\",\"Q1\":\"2\",\"Q2\":\"2\"}","rt":24614},{"control":false,"questionScores":[19,2416,2425,15,2404,21,2405,28,51,2387],"questionIndicies":[38,16,13,29,20,34,44,9,41,27],"judgmentIndicies":[0,1,2],"internal_node_id":"0.0-3.0-8.0","time_elapsed":133486,"trial_index":11,"trial_type":"survey-likert","responses":"{\"Q0\":\"3\",\"Q1\":\"3\",\"Q2\":\"4\"}","rt":5600},{"control":false,"questionScores":[19,2416,2425,15,2404,21,2405,28,51,2387],"questionIndicies":[38,16,13,29,20,34,44,9,41,27],"judgmentIndicies":[0,1,2],"internal_node_id":"0.0-3.0-9.0","time_elapsed":139710,"trial_index":12,"trial_type":"survey-likert","responses":"{\"Q0\":\"4\",\"Q1\":\"5\",\"Q2\":\"4\"}","rt":5218}],"__v":0}
{"_id":{"$oid":"5aa46f647150d0000425826c"},"data":[{"control":false,"questionScores":[2396,28,21,31,2411,2412,14,2406,2411,30],"questionIndicies":[7,2,41,25,24,16,14,39,28,4],"judgmentIndicies":[0,2,1],"internal_node_id":"0.0-0.0","time_elapsed":14435,"trial_index":0,"trial_type":"survey-multi-choice","responses":"{\"Q0\":\"I consent to participate\"}","rt":14424},{"control":false,"questionScores":[2396,28,21,31,2411,2412,14,2406,2411,30],"questionIndicies":[7,2,41,25,24,16,14,39,28,4],"judgmentIndicies":[0,2,1],"internal_node_id":"0.0-1.0","time_elapsed":19176,"trial_index":1,"trial_type":"instructions","rt":3739,"view_history":"[{\"page_index\":0,\"viewing_time\":3738}]"},{"control":false,"questionScores":[2396,28,21,31,2411,2412,14,2406,2411,30],"questionIndicies":[7,2,41,25,24,16,14,39,28,4],"judgmentIndicies":[0,2,1],"internal_node_id":"0.0-2.0","time_elapsed":29288,"trial_index":2,"trial_type":"instructions","rt":9111,"view_history":"[{\"page_index\":0,\"viewing_time\":9111}]"},{"control":false,"questionScores":[2396,28,21,31,2411,2412,14,2406,2411,30],"questionIndicies":[7,2,41,25,24,16,14,39,28,4],"judgmentIndicies":[0,2,1],"internal_node_id":"0.0-3.0-0.0","time_elapsed":47927,"trial_index":3,"trial_type":"survey-likert","responses":"{\"Q0\":\"4\",\"Q1\":\"2\",\"Q2\":\"3\"}","rt":17635},{"control":false,"questionScores":[2396,28,21,31,2411,2412,14,2406,2411,30],"questionIndicies":[7,2,41,25,24,16,14,39,28,4],"judgmentIndicies":[0,2,1],"internal_node_id":"0.0-3.0-1.0","time_elapsed":59898,"trial_index":4,"trial_type":"survey-likert","responses":"{\"Q0\":\"3\",\"Q1\":\"0\",\"Q2\":\"0\"}","rt":10967},{"control":false,"questionScores":[2396,28,21,31,2411,2412,14,2406,2411,30],"questionIndicies":[7,2,41,25,24,16,14,39,28,4],"judgmentIndicies":[0,2,1],"internal_node_id":"0.0-3.0-2.0","time_elapsed":71065,"trial_index":5,"trial_type":"survey-likert","responses":"{\"Q0\":\"0\",\"Q1\":\"0\",\"Q2\":\"0\"}","rt":10164},{"control":false,"questionScores":[2396,28,21,31,2411,2412,14,2406,2411,30],"questionIndicies":[7,2,41,25,24,16,14,39,28,4],"judgmentIndicies":[0,2,1],"internal_node_id":"0.0-3.0-3.0","time_elapsed":83748,"trial_index":6,"trial_type":"survey-likert","responses":"{\"Q0\":\"3\",\"Q1\":\"0\",\"Q2\":\"1\"}","rt":11680},{"control":false,"questionScores":[2396,28,21,31,2411,2412,14,2406,2411,30],"questionIndicies":[7,2,41,25,24,16,14,39,28,4],"judgmentIndicies":[0,2,1],"internal_node_id":"0.0-3.0-4.0","time_elapsed":103476,"trial_index":7,"trial_type":"survey-likert","responses":"{\"Q0\":\"3\",\"Q1\":\"2\",\"Q2\":\"3\"}","rt":18726},{"control":false,"questionScores":[2396,28,21,31,2411,2412,14,2406,2411,30],"questionIndicies":[7,2,41,25,24,16,14,39,28,4],"judgmentIndicies":[0,2,1],"internal_node_id":"0.0-3.0-5.0","time_elapsed":116564,"trial_index":8,"trial_type":"survey-likert","responses":"{\"Q0\":\"1\",\"Q1\":\"2\",\"Q2\":\"3\"}","rt":12085},{"control":false,"questionScores":[2396,28,21,31,2411,2412,14,2406,2411,30],"questionIndicies":[7,2,41,25,24,16,14,39,28,4],"judgmentIndicies":[0,2,1],"internal_node_id":"0.0-3.0-6.0","time_elapsed":134117,"trial_index":9,"trial_type":"survey-likert","responses":"{\"Q0\":\"4\",\"Q1\":\"0\",\"Q2\":\"0\"}","rt":16551},{"control":false,"questionScores":[2396,28,21,31,2411,2412,14,2406,2411,30],"questionIndicies":[7,2,41,25,24,16,14,39,28,4],"judgmentIndicies":[0,2,1],"internal_node_id":"0.0-3.0-7.0","time_elapsed":149218,"trial_index":10,"trial_type":"survey-likert","responses":"{\"Q0\":\"0\",\"Q1\":\"2\",\"Q2\":\"3\"}","rt":14098},{"control":false,"questionScores":[2396,28,21,31,2411,2412,14,2406,2411,30],"questionIndicies":[7,2,41,25,24,16,14,39,28,4],"judgmentIndicies":[0,2,1],"internal_node_id":"0.0-3.0-8.0","time_elapsed":161096,"trial_index":11,"trial_type":"survey-likert","responses":"{\"Q0\":\"0\",\"Q1\":\"2\",\"Q2\":\"3\"}","rt":10874},{"control":false,"questionScores":[2396,28,21,31,2411,2412,14,2406,2411,30],"questionIndicies":[7,2,41,25,24,16,14,39,28,4],"judgmentIndicies":[0,2,1],"internal_node_id":"0.0-3.0-9.0","time_elapsed":175914,"trial_index":12,"trial_type":"survey-likert","responses":"{\"Q0\":\"5\",\"Q1\":\"0\",\"Q2\":\"0\"}","rt":13817}],"__v":0}
{"_id":{"$oid":"5aa46f6f7150d0000425826d"},"data":[{"control":false,"questionScores":[9,32,28,30,2408,2419,2395,2402,2399,24],"questionIndicies":[35,13,6,41,34,2,11,18,48,27],"judgmentIndicies":[2,0,1],"internal_node_id":"0.0-0.0","time_elapsed":4634,"trial_index":0,"trial_type":"survey-multi-choice","responses":"{\"Q0\":\"I consent to participate\"}","rt":4616},{"control":false,"questionScores":[9,32,28,30,2408,2419,2395,2402,2399,24],"questionIndicies":[35,13,6,41,34,2,11,18,48,27],"judgmentIndicies":[2,0,1],"internal_node_id":"0.0-1.0","time_elapsed":8563,"trial_index":1,"trial_type":"instructions","rt":2924,"view_history":"[{\"page_index\":0,\"viewing_time\":2923}]"},{"control":false,"questionScores":[9,32,28,30,2408,2419,2395,2402,2399,24],"questionIndicies":[35,13,6,41,34,2,11,18,48,27],"judgmentIndicies":[2,0,1],"internal_node_id":"0.0-2.0","time_elapsed":29897,"trial_index":2,"trial_type":"instructions","rt":20335,"view_history":"[{\"page_index\":0,\"viewing_time\":20334}]"},{"control":false,"questionScores":[9,32,28,30,2408,2419,2395,2402,2399,24],"questionIndicies":[35,13,6,41,34,2,11,18,48,27],"judgmentIndicies":[2,0,1],"internal_node_id":"0.0-3.0-0.0","time_elapsed":59548,"trial_index":3,"trial_type":"survey-likert","responses":"{\"Q0\":\"1\",\"Q1\":\"5\",\"Q2\":\"3\"}","rt":28641},{"control":false,"questionScores":[9,32,28,30,2408,2419,2395,2402,2399,24],"questionIndicies":[35,13,6,41,34,2,11,18,48,27],"judgmentIndicies":[2,0,1],"internal_node_id":"0.0-3.0-1.0","time_elapsed":77287,"trial_index":4,"trial_type":"survey-likert","responses":"{\"Q0\":\"2\",\"Q1\":\"3\",\"Q2\":\"2\"}","rt":16733},{"control":false,"questionScores":[9,32,28,30,2408,2419,2395,2402,2399,24],"questionIndicies":[35,13,6,41,34,2,11,18,48,27],"judgmentIndicies":[2,0,1],"internal_node_id":"0.0-3.0-2.0","time_elapsed":90610,"trial_index":5,"trial_type":"survey-likert","responses":"{\"Q0\":\"2\",\"Q1\":\"3\",\"Q2\":\"3\"}","rt":12318},{"control":false,"questionScores":[9,32,28,30,2408,2419,2395,2402,2399,24],"questionIndicies":[35,13,6,41,34,2,11,18,48,27],"judgmentIndicies":[2,0,1],"internal_node_id":"0.0-3.0-3.0","time_elapsed":103829,"trial_index":6,"trial_type":"survey-likert","responses":"{\"Q0\":\"2\",\"Q1\":\"2\",\"Q2\":\"1\"}","rt":12212},{"control":false,"questionScores":[9,32,28,30,2408,2419,2395,2402,2399,24],"questionIndicies":[35,13,6,41,34,2,11,18,48,27],"judgmentIndicies":[2,0,1],"internal_node_id":"0.0-3.0-4.0","time_elapsed":120286,"trial_index":7,"trial_type":"survey-likert","responses":"{\"Q0\":\"5\",\"Q1\":\"3\",\"Q2\":\"3\"}","rt":15449},{"control":false,"questionScores":[9,32,28,30,2408,2419,2395,2402,2399,24],"questionIndicies":[35,13,6,41,34,2,11,18,48,27],"judgmentIndicies":[2,0,1],"internal_node_id":"0.0-3.0-5.0","time_elapsed":135441,"trial_index":8,"trial_type":"survey-likert","responses":"{\"Q0\":\"5\",\"Q1\":\"4\",\"Q2\":\"4\"}","rt":14147},{"control":false,"questionScores":[9,32,28,30,2408,2419,2395,2402,2399,24],"questionIndicies":[35,13,6,41,34,2,11,18,48,27],"judgmentIndicies":[2,0,1],"internal_node_id":"0.0-3.0-6.0","time_elapsed":148886,"trial_index":9,"trial_type":"survey-likert","responses":"{\"Q0\":\"5\",\"Q1\":\"3\",\"Q2\":\"1\"}","rt":12439},{"control":false,"questionScores":[9,32,28,30,2408,2419,2395,2402,2399,24],"questionIndicies":[35,13,6,41,34,2,11,18,48,27],"judgmentIndicies":[2,0,1],"internal_node_id":"0.0-3.0-7.0","time_elapsed":157683,"trial_index":10,"trial_type":"survey-likert","responses":"{\"Q0\":\"5\",\"Q1\":\"3\",\"Q2\":\"2\"}","rt":7790},{"control":false,"questionScores":[9,32,28,30,2408,2419,2395,2402,2399,24],"questionIndicies":[35,13,6,41,34,2,11,18,48,27],"judgmentIndicies":[2,0,1],"internal_node_id":"0.0-3.0-8.0","time_elapsed":176083,"trial_index":11,"trial_type":"survey-likert","responses":"{\"Q0\":\"5\",\"Q1\":\"4\",\"Q2\":\"2\"}","rt":17393},{"control":false,"questionScores":[9,32,28,30,2408,2419,2395,2402,2399,24],"questionIndicies":[35,13,6,41,34,2,11,18,48,27],"judgmentIndicies":[2,0,1],"internal_node_id":"0.0-3.0-9.0","time_elapsed":188405,"trial_index":12,"trial_type":"survey-likert","responses":"{\"Q0\":\"1\",\"Q1\":\"3\",\"Q2\":\"2\"}","rt":11315}],"__v":0}
{"_id":{"$oid":"5aa46f727150d0000425826e"},"data":[{"control":false,"questionScores":[21,2396,40,37,29,2416,2418,29,2401,2421],"questionIndicies":[43,6,34,1,36,3,22,46,5,45],"judgmentIndicies":[0,2,1],"internal_node_id":"0.0-0.0","time_elapsed":13878,"trial_index":0,"trial_type":"survey-multi-choice","responses":"{\"Q0\":\"I consent to participate\"}","rt":13862},{"control":false,"questionScores":[21,2396,40,37,29,2416,2418,29,2401,2421],"questionIndicies":[43,6,34,1,36,3,22,46,5,45],"judgmentIndicies":[0,2,1],"internal_node_id":"0.0-1.0","time_elapsed":18466,"trial_index":1,"trial_type":"instructions","rt":3583,"view_history":"[{\"page_index\":0,\"viewing_time\":3582}]"},{"control":false,"questionScores":[21,2396,40,37,29,2416,2418,29,2401,2421],"questionIndicies":[43,6,34,1,36,3,22,46,5,45],"judgmentIndicies":[0,2,1],"internal_node_id":"0.0-2.0","time_elapsed":31142,"trial_index":2,"trial_type":"instructions","rt":11667,"view_history":"[{\"page_index\":0,\"viewing_time\":11667}]"},{"control":false,"questionScores":[21,2396,40,37,29,2416,2418,29,2401,2421],"questionIndicies":[43,6,34,1,36,3,22,46,5,45],"judgmentIndicies":[0,2,1],"internal_node_id":"0.0-3.0-0.0","time_elapsed":58893,"trial_index":3,"trial_type":"survey-likert","responses":"{\"Q0\":\"2\",\"Q1\":\"2\",\"Q2\":\"2\"}","rt":26744},{"control":false,"questionScores":[21,2396,40,37,29,2416,2418,29,2401,2421],"questionIndicies":[43,6,34,1,36,3,22,46,5,45],"judgmentIndicies":[0,2,1],"internal_node_id":"0.0-3.0-1.0","time_elapsed":75275,"trial_index":4,"trial_type":"survey-likert","responses":"{\"Q0\":\"2\",\"Q1\":\"2\",\"Q2\":\"2\"}","rt":15376},{"control":false,"questionScores":[21,2396,40,37,29,2416,2418,29,2401,2421],"questionIndicies":[43,6,34,1,36,3,22,46,5,45],"judgmentIndicies":[0,2,1],"internal_node_id":"0.0-3.0-2.0","time_elapsed":95992,"trial_index":5,"trial_type":"survey-likert","responses":"{\"Q0\":\"1\",\"Q1\":\"1\",\"Q2\":\"1\"}","rt":19710},{"control":false,"questionScores":[21,2396,40,37,29,2416,2418,29,2401,2421],"questionIndicies":[43,6,34,1,36,3,22,46,5,45],"judgmentIndicies":[0,2,1],"internal_node_id":"0.0-3.0-3.0","time_elapsed":106717,"trial_index":6,"trial_type":"survey-likert","responses":"{\"Q0\":\"3\",\"Q1\":\"3\",\"Q2\":\"3\"}","rt":9722},{"control":false,"questionScores":[21,2396,40,37,29,2416,2418,29,2401,2421],"questionIndicies":[43,6,34,1,36,3,22,46,5,45],"judgmentIndicies":[0,2,1],"internal_node_id":"0.0-3.0-4.0","time_elapsed":121145,"trial_index":7,"trial_type":"survey-likert","responses":"{\"Q0\":\"3\",\"Q1\":\"1\",\"Q2\":\"1\"}","rt":13417},{"control":false,"questionScores":[21,2396,40,37,29,2416,2418,29,2401,2421],"questionIndicies":[43,6,34,1,36,3,22,46,5,45],"judgmentIndicies":[0,2,1],"internal_node_id":"0.0-3.0-5.0","time_elapsed":133116,"trial_index":8,"trial_type":"survey-likert","responses":"{\"Q0\":\"3\",\"Q1\":\"1\",\"Q2\":\"1\"}","rt":10965},{"control":false,"questionScores":[21,2396,40,37,29,2416,2418,29,2401,2421],"questionIndicies":[43,6,34,1,36,3,22,46,5,45],"judgmentIndicies":[0,2,1],"internal_node_id":"0.0-3.0-6.0","time_elapsed":151753,"trial_index":9,"trial_type":"survey-likert","responses":"{\"Q0\":\"5\",\"Q1\":\"2\",\"Q2\":\"2\"}","rt":17631},{"control":false,"questionScores":[21,2396,40,37,29,2416,2418,29,2401,2421],"questionIndicies":[43,6,34,1,36,3,22,46,5,45],"judgmentIndicies":[0,2,1],"internal_node_id":"0.0-3.0-7.0","time_elapsed":165866,"trial_index":10,"trial_type":"survey-likert","responses":"{\"Q0\":\"3\",\"Q1\":\"1\",\"Q2\":\"1\"}","rt":13109},{"control":false,"questionScores":[21,2396,40,37,29,2416,2418,29,2401,2421],"questionIndicies":[43,6,34,1,36,3,22,46,5,45],"judgmentIndicies":[0,2,1],"internal_node_id":"0.0-3.0-8.0","time_elapsed":176761,"trial_index":11,"trial_type":"survey-likert","responses":"{\"Q0\":\"2\",\"Q1\":\"0\",\"Q2\":\"0\"}","rt":9892},{"control":false,"questionScores":[21,2396,40,37,29,2416,2418,29,2401,2421],"questionIndicies":[43,6,34,1,36,3,22,46,5,45],"judgmentIndicies":[0,2,1],"internal_node_id":"0.0-3.0-9.0","time_elapsed":185366,"trial_index":12,"trial_type":"survey-likert","responses":"{\"Q0\":\"2\",\"Q1\":\"0\",\"Q2\":\"0\"}","rt":7597}],"__v":0}
{"_id":{"$oid":"5aa46f7e7150d0000425826f"},"data":[{"control":false,"questionScores":[2409,20,29,16,2399,2386,32,2411,2417,7],"questionIndicies":[14,23,7,1,31,5,32,25,6,2],"judgmentIndicies":[2,1,0],"internal_node_id":"0.0-0.0","time_elapsed":5495,"trial_index":0,"trial_type":"survey-multi-choice","responses":"{\"Q0\":\"I consent to participate\"}","rt":5483},{"control":false,"questionScores":[2409,20,29,16,2399,2386,32,2411,2417,7],"questionIndicies":[14,23,7,1,31,5,32,25,6,2],"judgmentIndicies":[2,1,0],"internal_node_id":"0.0-1.0","time_elapsed":16116,"trial_index":1,"trial_type":"instructions","rt":9621,"view_history":"[{\"page_index\":0,\"viewing_time\":9621}]"},{"control":false,"questionScores":[2409,20,29,16,2399,2386,32,2411,2417,7],"questionIndicies":[14,23,7,1,31,5,32,25,6,2],"judgmentIndicies":[2,1,0],"internal_node_id":"0.0-2.0","time_elapsed":31739,"trial_index":2,"trial_type":"instructions","rt":14623,"view_history":"[{\"page_index\":0,\"viewing_time\":14623}]"},{"control":false,"questionScores":[2409,20,29,16,2399,2386,32,2411,2417,7],"questionIndicies":[14,23,7,1,31,5,32,25,6,2],"judgmentIndicies":[2,1,0],"internal_node_id":"0.0-3.0-0.0","time_elapsed":51957,"trial_index":3,"trial_type":"survey-likert","responses":"{\"Q0\":\"6\",\"Q1\":\"5\",\"Q2\":\"2\"}","rt":19214},{"control":false,"questionScores":[2409,20,29,16,2399,2386,32,2411,2417,7],"questionIndicies":[14,23,7,1,31,5,32,25,6,2],"judgmentIndicies":[2,1,0],"internal_node_id":"0.0-3.0-1.0","time_elapsed":65573,"trial_index":4,"trial_type":"survey-likert","responses":"{\"Q0\":\"0\",\"Q1\":\"0\",\"Q2\":\"0\"}","rt":12614},{"control":false,"questionScores":[2409,20,29,16,2399,2386,32,2411,2417,7],"questionIndicies":[14,23,7,1,31,5,32,25,6,2],"judgmentIndicies":[2,1,0],"internal_node_id":"0.0-3.0-2.0","time_elapsed":75430,"trial_index":5,"trial_type":"survey-likert","responses":"{\"Q0\":\"0\",\"Q1\":\"0\",\"Q2\":\"0\"}","rt":8855},{"control":false,"questionScores":[2409,20,29,16,2399,2386,32,2411,2417,7],"questionIndicies":[14,23,7,1,31,5,32,25,6,2],"judgmentIndicies":[2,1,0],"internal_node_id":"0.0-3.0-3.0","time_elapsed":85997,"trial_index":6,"trial_type":"survey-likert","responses":"{\"Q0\":\"0\",\"Q1\":\"0\",\"Q2\":\"0\"}","rt":9566},{"control":false,"questionScores":[2409,20,29,16,2399,2386,32,2411,2417,7],"questionIndicies":[14,23,7,1,31,5,32,25,6,2],"judgmentIndicies":[2,1,0],"internal_node_id":"0.0-3.0-4.0","time_elapsed":99644,"trial_index":7,"trial_type":"survey-likert","responses":"{\"Q0\":\"3\",\"Q1\":\"4\",\"Q2\":\"2\"}","rt":12646},{"control":false,"questionScores":[2409,20,29,16,2399,2386,32,2411,2417,7],"questionIndicies":[14,23,7,1,31,5,32,25,6,2],"judgmentIndicies":[2,1,0],"internal_node_id":"0.0-3.0-5.0","time_elapsed":109805,"trial_index":8,"trial_type":"survey-likert","responses":"{\"Q0\":\"3\",\"Q1\":\"3\",\"Q2\":\"0\"}","rt":9159},{"control":false,"questionScores":[2409,20,29,16,2399,2386,32,2411,2417,7],"questionIndicies":[14,23,7,1,31,5,32,25,6,2],"judgmentIndicies":[2,1,0],"internal_node_id":"0.0-3.0-6.0","time_elapsed":117461,"trial_index":9,"trial_type":"survey-likert","responses":"{\"Q0\":\"1\",\"Q1\":\"0\",\"Q2\":\"0\"}","rt":6654},{"control":false,"questionScores":[2409,20,29,16,2399,2386,32,2411,2417,7],"questionIndicies":[14,23,7,1,31,5,32,25,6,2],"judgmentIndicies":[2,1,0],"internal_node_id":"0.0-3.0-7.0","time_elapsed":132429,"trial_index":10,"trial_type":"survey-likert","responses":"{\"Q0\":\"3\",\"Q1\":\"4\",\"Q2\":\"0\"}","rt":13967},{"control":false,"questionScores":[2409,20,29,16,2399,2386,32,2411,2417,7],"questionIndicies":[14,23,7,1,31,5,32,25,6,2],"judgmentIndicies":[2,1,0],"internal_node_id":"0.0-3.0-8.0","time_elapsed":146573,"trial_index":11,"trial_type":"survey-likert","responses":"{\"Q0\":\"4\",\"Q1\":\"4\",\"Q2\":\"3\"}","rt":13143},{"control":false,"questionScores":[2409,20,29,16,2399,2386,32,2411,2417,7],"questionIndicies":[14,23,7,1,31,5,32,25,6,2],"judgmentIndicies":[2,1,0],"internal_node_id":"0.0-3.0-9.0","time_elapsed":157526,"trial_index":12,"trial_type":"survey-likert","responses":"{\"Q0\":\"0\",\"Q1\":\"0\",\"Q2\":\"0\"}","rt":9951}],"__v":0}
{"_id":{"$oid":"5aa46f8c7150d00004258270"},"data":[{"control":false,"questionScores":[2383,33,32,2392,28,2411,2408,22,61,2401],"questionIndicies":[4,29,3,22,47,46,38,1,5,8],"judgmentIndicies":[2,0,1],"internal_node_id":"0.0-0.0","time_elapsed":35752,"trial_index":0,"trial_type":"survey-multi-choice","responses":"{\"Q0\":\"I consent to participate\"}","rt":35737},{"control":false,"questionScores":[2383,33,32,2392,28,2411,2408,22,61,2401],"questionIndicies":[4,29,3,22,47,46,38,1,5,8],"judgmentIndicies":[2,0,1],"internal_node_id":"0.0-1.0","time_elapsed":39485,"trial_index":1,"trial_type":"instructions","rt":2731,"view_history":"[{\"page_index\":0,\"viewing_time\":2730}]"},{"control":false,"questionScores":[2383,33,32,2392,28,2411,2408,22,61,2401],"questionIndicies":[4,29,3,22,47,46,38,1,5,8],"judgmentIndicies":[2,0,1],"internal_node_id":"0.0-2.0","time_elapsed":47450,"trial_index":2,"trial_type":"instructions","rt":6964,"view_history":"[{\"page_index\":0,\"viewing_time\":6964}]"},{"control":false,"questionScores":[2383,33,32,2392,28,2411,2408,22,61,2401],"questionIndicies":[4,29,3,22,47,46,38,1,5,8],"judgmentIndicies":[2,0,1],"internal_node_id":"0.0-3.0-0.0","time_elapsed":73515,"trial_index":3,"trial_type":"survey-likert","responses":"{\"Q0\":\"2\",\"Q1\":\"1\",\"Q2\":\"1\"}","rt":25058},{"control":false,"questionScores":[2383,33,32,2392,28,2411,2408,22,61,2401],"questionIndicies":[4,29,3,22,47,46,38,1,5,8],"judgmentIndicies":[2,0,1],"internal_node_id":"0.0-3.0-1.0","time_elapsed":87939,"trial_index":4,"trial_type":"survey-likert","responses":"{\"Q0\":\"0\",\"Q1\":\"0\",\"Q2\":\"0\"}","rt":13418},{"control":false,"questionScores":[2383,33,32,2392,28,2411,2408,22,61,2401],"questionIndicies":[4,29,3,22,47,46,38,1,5,8],"judgmentIndicies":[2,0,1],"internal_node_id":"0.0-3.0-2.0","time_elapsed":104371,"trial_index":5,"trial_type":"survey-likert","responses":"{\"Q0\":\"0\",\"Q1\":\"0\",\"Q2\":\"1\"}","rt":15428},{"control":false,"questionScores":[2383,33,32,2392,28,2411,2408,22,61,2401],"questionIndicies":[4,29,3,22,47,46,38,1,5,8],"judgmentIndicies":[2,0,1],"internal_node_id":"0.0-3.0-3.0","time_elapsed":118098,"trial_index":6,"trial_type":"survey-likert","responses":"{\"Q0\":\"2\",\"Q1\":\"1\",\"Q2\":\"1\"}","rt":12699},{"control":false,"questionScores":[2383,33,32,2392,28,2411,2408,22,61,2401],"questionIndicies":[4,29,3,22,47,46,38,1,5,8],"judgmentIndicies":[2,0,1],"internal_node_id":"0.0-3.0-4.0","time_elapsed":131081,"trial_index":7,"trial_type":"survey-likert","responses":"{\"Q0\":\"0\",\"Q1\":\"3\",\"Q2\":\"2\"}","rt":11979},{"control":false,"questionScores":[2383,33,32,2392,28,2411,2408,22,61,2401],"questionIndicies":[4,29,3,22,47,46,38,1,5,8],"judgmentIndicies":[2,0,1],"internal_node_id":"0.0-3.0-5.0","time_elapsed":145321,"trial_index":8,"trial_type":"survey-likert","responses":"{\"Q0\":\"2\",\"Q1\":\"1\",\"Q2\":\"2\"}","rt":13235},{"control":false,"questionScores":[2383,33,32,2392,28,2411,2408,22,61,2401],"questionIndicies":[4,29,3,22,47,46,38,1,5,8],"judgmentIndicies":[2,0,1],"internal_node_id":"0.0-3.0-6.0","time_elapsed":162351,"trial_index":9,"trial_type":"survey-likert","responses":"{\"Q0\":\"2\",\"Q1\":\"2\",\"Q2\":\"3\"}","rt":16027},{"control":false,"questionScores":[2383,33,32,2392,28,2411,2408,22,61,2401],"questionIndicies":[4,29,3,22,47,46,38,1,5,8],"judgmentIndicies":[2,0,1],"internal_node_id":"0.0-3.0-7.0","time_elapsed":179887,"trial_index":10,"trial_type":"survey-likert","responses":"{\"Q0\":\"0\",\"Q1\":\"0\",\"Q2\":\"1\"}","rt":16531},{"control":false,"questionScores":[2383,33,32,2392,28,2411,2408,22,61,2401],"questionIndicies":[4,29,3,22,47,46,38,1,5,8],"judgmentIndicies":[2,0,1],"internal_node_id":"0.0-3.0-8.0","time_elapsed":194841,"trial_index":11,"trial_type":"survey-likert","responses":"{\"Q0\":\"0\",\"Q1\":\"1\",\"Q2\":\"1\"}","rt":13952},{"control":false,"questionScores":[2383,33,32,2392,28,2411,2408,22,61,2401],"questionIndicies":[4,29,3,22,47,46,38,1,5,8],"judgmentIndicies":[2,0,1],"internal_node_id":"0.0-3.0-9.0","time_elapsed":211030,"trial_index":12,"trial_type":"survey-likert","responses":"{\"Q0\":\"2\",\"Q1\":\"0\",\"Q2\":\"2\"}","rt":15184}],"__v":0}
{"_id":{"$oid":"5aa46f927150d00004258271"},"data":[{"control":false,"questionScores":[42,2401,2401,22,30,32,2410,2395,15,2395],"questionIndicies":[15,31,30,33,0,9,28,40,37,10],"judgmentIndicies":[1,0,2],"internal_node_id":"0.0-0.0","time_elapsed":5863,"trial_index":0,"trial_type":"survey-multi-choice","responses":"{\"Q0\":\"I consent to participate\"}","rt":5827},{"control":false,"questionScores":[42,2401,2401,22,30,32,2410,2395,15,2395],"questionIndicies":[15,31,30,33,0,9,28,40,37,10],"judgmentIndicies":[1,0,2],"internal_node_id":"0.0-1.0","time_elapsed":12166,"trial_index":1,"trial_type":"instructions","rt":4837,"view_history":"[{\"page_index\":0,\"viewing_time\":4836}]"},{"control":false,"questionScores":[42,2401,2401,22,30,32,2410,2395,15,2395],"questionIndicies":[15,31,30,33,0,9,28,40,37,10],"judgmentIndicies":[1,0,2],"internal_node_id":"0.0-2.0","time_elapsed":18122,"trial_index":2,"trial_type":"instructions","rt":4955,"view_history":"[{\"page_index\":0,\"viewing_time\":4954}]"},{"control":false,"questionScores":[42,2401,2401,22,30,32,2410,2395,15,2395],"questionIndicies":[15,31,30,33,0,9,28,40,37,10],"judgmentIndicies":[1,0,2],"internal_node_id":"0.0-3.0-0.0","time_elapsed":55702,"trial_index":3,"trial_type":"survey-likert","responses":"{\"Q0\":\"5\",\"Q1\":\"5\",\"Q2\":\"6\"}","rt":36565},{"control":false,"questionScores":[42,2401,2401,22,30,32,2410,2395,15,2395],"questionIndicies":[15,31,30,33,0,9,28,40,37,10],"judgmentIndicies":[1,0,2],"internal_node_id":"0.0-3.0-1.0","time_elapsed":74813,"trial_index":4,"trial_type":"survey-likert","responses":"{\"Q0\":\"1\",\"Q1\":\"0\",\"Q2\":\"0\"}","rt":18101},{"control":false,"questionScores":[42,2401,2401,22,30,32,2410,2395,15,2395],"questionIndicies":[15,31,30,33,0,9,28,40,37,10],"judgmentIndicies":[1,0,2],"internal_node_id":"0.0-3.0-2.0","time_elapsed":94419,"trial_index":5,"trial_type":"survey-likert","responses":"{\"Q0\":\"5\",\"Q1\":\"6\",\"Q2\":\"6\"}","rt":18597},{"control":false,"questionScores":[42,2401,2401,22,30,32,2410,2395,15,2395],"questionIndicies":[15,31,30,33,0,9,28,40,37,10],"judgmentIndicies":[1,0,2],"internal_node_id":"0.0-3.0-3.0","time_elapsed":113986,"trial_index":6,"trial_type":"survey-likert","responses":"{\"Q0\":\"0\",\"Q1\":\"0\",\"Q2\":\"0\"}","rt":18557},{"control":false,"questionScores":[42,2401,2401,22,30,32,2410,2395,15,2395],"questionIndicies":[15,31,30,33,0,9,28,40,37,10],"judgmentIndicies":[1,0,2],"internal_node_id":"0.0-3.0-4.0","time_elapsed":126378,"trial_index":7,"trial_type":"survey-likert","responses":"{\"Q0\":\"2\",\"Q1\":\"2\",\"Q2\":\"1\"}","rt":11382},{"control":false,"questionScores":[42,2401,2401,22,30,32,2410,2395,15,2395],"questionIndicies":[15,31,30,33,0,9,28,40,37,10],"judgmentIndicies":[1,0,2],"internal_node_id":"0.0-3.0-5.0","time_elapsed":142633,"trial_index":8,"trial_type":"survey-likert","responses":"{\"Q0\":\"2\",\"Q1\":\"1\",\"Q2\":\"1\"}","rt":15246},{"control":false,"questionScores":[42,2401,2401,22,30,32,2410,2395,15,2395],"questionIndicies":[15,31,30,33,0,9,28,40,37,10],"judgmentIndicies":[1,0,2],"internal_node_id":"0.0-3.0-6.0","time_elapsed":156253,"trial_index":9,"trial_type":"survey-likert","responses":"{\"Q0\":\"5\",\"Q1\":\"5\",\"Q2\":\"4\"}","rt":12612},{"control":false,"questionScores":[42,2401,2401,22,30,32,2410,2395,15,2395],"questionIndicies":[15,31,30,33,0,9,28,40,37,10],"judgmentIndicies":[1,0,2],"internal_node_id":"0.0-3.0-7.0","time_elapsed":169095,"trial_index":10,"trial_type":"survey-likert","responses":"{\"Q0\":\"6\",\"Q1\":\"6\",\"Q2\":\"6\"}","rt":11833},{"control":false,"questionScores":[42,2401,2401,22,30,32,2410,2395,15,2395],"questionIndicies":[15,31,30,33,0,9,28,40,37,10],"judgmentIndicies":[1,0,2],"internal_node_id":"0.0-3.0-8.0","time_elapsed":189811,"trial_index":11,"trial_type":"survey-likert","responses":"{\"Q0\":\"5\",\"Q1\":\"5\",\"Q2\":\"5\"}","rt":19707},{"control":false,"questionScores":[42,2401,2401,22,30,32,2410,2395,15,2395],"questionIndicies":[15,31,30,33,0,9,28,40,37,10],"judgmentIndicies":[1,0,2],"internal_node_id":"0.0-3.0-9.0","time_elapsed":202907,"trial_index":12,"trial_type":"survey-likert","responses":"{\"Q0\":\"4\",\"Q1\":\"3\",\"Q2\":\"3\"}","rt":12086}],"__v":0}
{"_id":{"$oid":"5aa46f967150d00004258272"},"data":[{"control":false,"questionScores":[13,2432,2408,32,41,2413,22,2401,2413,29],"questionIndicies":[25,40,44,18,27,8,2,5,16,36],"judgmentIndicies":[2,0,1],"internal_node_id":"0.0-0.0","time_elapsed":5884,"trial_index":0,"trial_type":"survey-multi-choice","responses":"{\"Q0\":\"I consent to participate\"}","rt":5854},{"control":false,"questionScores":[13,2432,2408,32,41,2413,22,2401,2413,29],"questionIndicies":[25,40,44,18,27,8,2,5,16,36],"judgmentIndicies":[2,0,1],"internal_node_id":"0.0-1.0","time_elapsed":11258,"trial_index":1,"trial_type":"instructions","rt":4373,"view_history":"[{\"page_index\":0,\"viewing_time\":4370}]"},{"control":false,"questionScores":[13,2432,2408,32,41,2413,22,2401,2413,29],"questionIndicies":[25,40,44,18,27,8,2,5,16,36],"judgmentIndicies":[2,0,1],"internal_node_id":"0.0-2.0","time_elapsed":18948,"trial_index":2,"trial_type":"instructions","rt":6691,"view_history":"[{\"page_index\":0,\"viewing_time\":6691}]"},{"control":false,"questionScores":[13,2432,2408,32,41,2413,22,2401,2413,29],"questionIndicies":[25,40,44,18,27,8,2,5,16,36],"judgmentIndicies":[2,0,1],"internal_node_id":"0.0-3.0-0.0","time_elapsed":36895,"trial_index":3,"trial_type":"survey-likert","responses":"{\"Q0\":\"1\",\"Q1\":\"3\",\"Q2\":\"2\"}","rt":16940},{"control":false,"questionScores":[13,2432,2408,32,41,2413,22,2401,2413,29],"questionIndicies":[25,40,44,18,27,8,2,5,16,36],"judgmentIndicies":[2,0,1],"internal_node_id":"0.0-3.0-1.0","time_elapsed":53593,"trial_index":4,"trial_type":"survey-likert","responses":"{\"Q0\":\"3\",\"Q1\":\"2\",\"Q2\":\"4\"}","rt":15692},{"control":false,"questionScores":[13,2432,2408,32,41,2413,22,2401,2413,29],"questionIndicies":[25,40,44,18,27,8,2,5,16,36],"judgmentIndicies":[2,0,1],"internal_node_id":"0.0-3.0-2.0","time_elapsed":69361,"trial_index":5,"trial_type":"survey-likert","responses":"{\"Q0\":\"3\",\"Q1\":\"2\",\"Q2\":\"2\"}","rt":14764},{"control":false,"questionScores":[13,2432,2408,32,41,2413,22,2401,2413,29],"questionIndicies":[25,40,44,18,27,8,2,5,16,36],"judgmentIndicies":[2,0,1],"internal_node_id":"0.0-3.0-3.0","time_elapsed":77745,"trial_index":6,"trial_type":"survey-likert","responses":"{\"Q0\":\"1\",\"Q1\":\"1\",\"Q2\":\"2\"}","rt":7376},{"control":false,"questionScores":[13,2432,2408,32,41,2413,22,2401,2413,29],"questionIndicies":[25,40,44,18,27,8,2,5,16,36],"judgmentIndicies":[2,0,1],"internal_node_id":"0.0-3.0-4.0","time_elapsed":88230,"trial_index":7,"trial_type":"survey-likert","responses":"{\"Q0\":\"2\",\"Q1\":\"1\",\"Q2\":\"2\"}","rt":9479},{"control":false,"questionScores":[13,2432,2408,32,41,2413,22,2401,2413,29],"questionIndicies":[25,40,44,18,27,8,2,5,16,36],"judgmentIndicies":[2,0,1],"internal_node_id":"0.0-3.0-5.0","time_elapsed":97802,"trial_index":8,"trial_type":"survey-likert","responses":"{\"Q0\":\"4\",\"Q1\":\"2\",\"Q2\":\"3\"}","rt":8566},{"control":false,"questionScores":[13,2432,2408,32,41,2413,22,2401,2413,29],"questionIndicies":[25,40,44,18,27,8,2,5,16,36],"judgmentIndicies":[2,0,1],"internal_node_id":"0.0-3.0-6.0","time_elapsed":109026,"trial_index":9,"trial_type":"survey-likert","responses":"{\"Q0\":\"1\",\"Q1\":\"2\",\"Q2\":\"2\"}","rt":10218},{"control":false,"questionScores":[13,2432,2408,32,41,2413,22,2401,2413,29],"questionIndicies":[25,40,44,18,27,8,2,5,16,36],"judgmentIndicies":[2,0,1],"internal_node_id":"0.0-3.0-7.0","time_elapsed":119137,"trial_index":10,"trial_type":"survey-likert","responses":"{\"Q0\":\"4\",\"Q1\":\"2\",\"Q2\":\"2\"}","rt":9106},{"control":false,"questionScores":[13,2432,2408,32,41,2413,22,2401,2413,29],"questionIndicies":[25,40,44,18,27,8,2,5,16,36],"judgmentIndicies":[2,0,1],"internal_node_id":"0.0-3.0-8.0","time_elapsed":129745,"trial_index":11,"trial_type":"survey-likert","responses":"{\"Q0\":\"4\",\"Q1\":\"2\",\"Q2\":\"3\"}","rt":9601},{"control":false,"questionScores":[13,2432,2408,32,41,2413,22,2401,2413,29],"questionIndicies":[25,40,44,18,27,8,2,5,16,36],"judgmentIndicies":[2,0,1],"internal_node_id":"0.0-3.0-9.0","time_elapsed":141441,"trial_index":12,"trial_type":"survey-likert","responses":"{\"Q0\":\"1\",\"Q1\":\"2\",\"Q2\":\"1\"}","rt":10690}],"__v":0}
{"_id":{"$oid":"5aa46f9e7150d00004258273"},"data":[{"control":false,"questionScores":[30,2392,20,24,2417,2402,25,2412,2406,16],"questionIndicies":[19,44,8,30,25,18,2,40,41,7],"judgmentIndicies":[2,1,0],"internal_node_id":"0.0-0.0","time_elapsed":25133,"trial_index":0,"trial_type":"survey-multi-choice","responses":"{\"Q0\":\"I consent to participate\"}","rt":25121},{"control":false,"questionScores":[30,2392,20,24,2417,2402,25,2412,2406,16],"questionIndicies":[19,44,8,30,25,18,2,40,41,7],"judgmentIndicies":[2,1,0],"internal_node_id":"0.0-1.0","time_elapsed":28921,"trial_index":1,"trial_type":"instructions","rt":2787,"view_history":"[{\"page_index\":0,\"viewing_time\":2787}]"},{"control":false,"questionScores":[30,2392,20,24,2417,2402,25,2412,2406,16],"questionIndicies":[19,44,8,30,25,18,2,40,41,7],"judgmentIndicies":[2,1,0],"internal_node_id":"0.0-2.0","time_elapsed":46565,"trial_index":2,"trial_type":"instructions","rt":16643,"view_history":"[{\"page_index\":0,\"viewing_time\":16643}]"},{"control":false,"questionScores":[30,2392,20,24,2417,2402,25,2412,2406,16],"questionIndicies":[19,44,8,30,25,18,2,40,41,7],"judgmentIndicies":[2,1,0],"internal_node_id":"0.0-3.0-0.0","time_elapsed":66355,"trial_index":3,"trial_type":"survey-likert","responses":"{\"Q0\":\"2\",\"Q1\":\"2\",\"Q2\":\"4\"}","rt":18781},{"control":false,"questionScores":[30,2392,20,24,2417,2402,25,2412,2406,16],"questionIndicies":[19,44,8,30,25,18,2,40,41,7],"judgmentIndicies":[2,1,0],"internal_node_id":"0.0-3.0-1.0","time_elapsed":83355,"trial_index":4,"trial_type":"survey-likert","responses":"{\"Q0\":\"4\",\"Q1\":\"4\",\"Q2\":\"1\"}","rt":15993},{"control":false,"questionScores":[30,2392,20,24,2417,2402,25,2412,2406,16],"questionIndicies":[19,44,8,30,25,18,2,40,41,7],"judgmentIndicies":[2,1,0],"internal_node_id":"0.0-3.0-2.0","time_elapsed":99695,"trial_index":5,"trial_type":"survey-likert","responses":"{\"Q0\":\"0\",\"Q1\":\"0\",\"Q2\":\"1\"}","rt":15335},{"control":false,"questionScores":[30,2392,20,24,2417,2402,25,2412,2406,16],"questionIndicies":[19,44,8,30,25,18,2,40,41,7],"judgmentIndicies":[2,1,0],"internal_node_id":"0.0-3.0-3.0","time_elapsed":115825,"trial_index":6,"trial_type":"survey-likert","responses":"{\"Q0\":\"0\",\"Q1\":\"0\",\"Q2\":\"2\"}","rt":15123},{"control":false,"questionScores":[30,2392,20,24,2417,2402,25,2412,2406,16],"questionIndicies":[19,44,8,30,25,18,2,40,41,7],"judgmentIndicies":[2,1,0],"internal_node_id":"0.0-3.0-4.0","time_elapsed":129595,"trial_index":7,"trial_type":"survey-likert","responses":"{\"Q0\":\"4\",\"Q1\":\"4\",\"Q2\":\"1\"}","rt":12764},{"control":false,"questionScores":[30,2392,20,24,2417,2402,25,2412,2406,16],"questionIndicies":[19,44,8,30,25,18,2,40,41,7],"judgmentIndicies":[2,1,0],"internal_node_id":"0.0-3.0-5.0","time_elapsed":146152,"trial_index":8,"trial_type":"survey-likert","responses":"{\"Q0\":\"4\",\"Q1\":\"5\",\"Q2\":\"1\"}","rt":15554},{"control":false,"questionScores":[30,2392,20,24,2417,2402,25,2412,2406,16],"questionIndicies":[19,44,8,30,25,18,2,40,41,7],"judgmentIndicies":[2,1,0],"internal_node_id":"0.0-3.0-6.0","time_elapsed":162880,"trial_index":9,"trial_type":"survey-likert","responses":"{\"Q0\":\"1\",\"Q1\":\"1\",\"Q2\":\"2\"}","rt":15720},{"control":false,"questionScores":[30,2392,20,24,2417,2402,25,2412,2406,16],"questionIndicies":[19,44,8,30,25,18,2,40,41,7],"judgmentIndicies":[2,1,0],"internal_node_id":"0.0-3.0-7.0","time_elapsed":175805,"trial_index":10,"trial_type":"survey-likert","responses":"{\"Q0\":\"4\",\"Q1\":\"4\",\"Q2\":\"1\"}","rt":11920},{"control":false,"questionScores":[30,2392,20,24,2417,2402,25,2412,2406,16],"questionIndicies":[19,44,8,30,25,18,2,40,41,7],"judgmentIndicies":[2,1,0],"internal_node_id":"0.0-3.0-8.0","time_elapsed":187629,"trial_index":11,"trial_type":"survey-likert","responses":"{\"Q0\":\"4\",\"Q1\":\"4\",\"Q2\":\"0\"}","rt":10818},{"control":false,"questionScores":[30,2392,20,24,2417,2402,25,2412,2406,16],"questionIndicies":[19,44,8,30,25,18,2,40,41,7],"judgmentIndicies":[2,1,0],"internal_node_id":"0.0-3.0-9.0","time_elapsed":207390,"trial_index":12,"trial_type":"survey-likert","responses":"{\"Q0\":\"0\",\"Q1\":\"0\",\"Q2\":\"1\"}","rt":18752}],"__v":0}
{"_id":{"$oid":"5aa46fcb7150d00004258274"},"data":[{"control":false,"questionScores":[25,30,19,24,13,2401,2405,2413,2413,2412],"questionIndicies":[15,3,39,25,23,31,12,43,32,14],"judgmentIndicies":[1,0,2],"internal_node_id":"0.0-0.0","time_elapsed":22496,"trial_index":0,"trial_type":"survey-multi-choice","responses":"{\"Q0\":\"I consent to participate\"}","rt":22476},{"control":false,"questionScores":[25,30,19,24,13,2401,2405,2413,2413,2412],"questionIndicies":[15,3,39,25,23,31,12,43,32,14],"judgmentIndicies":[1,0,2],"internal_node_id":"0.0-1.0","time_elapsed":28461,"trial_index":1,"trial_type":"instructions","rt":4962,"view_history":"[{\"page_index\":0,\"viewing_time\":4960}]"},{"control":false,"questionScores":[25,30,19,24,13,2401,2405,2413,2413,2412],"questionIndicies":[15,3,39,25,23,31,12,43,32,14],"judgmentIndicies":[1,0,2],"internal_node_id":"0.0-2.0","time_elapsed":43547,"trial_index":2,"trial_type":"instructions","rt":14086,"view_history":"[{\"page_index\":0,\"viewing_time\":14086}]"},{"control":false,"questionScores":[25,30,19,24,13,2401,2405,2413,2413,2412],"questionIndicies":[15,3,39,25,23,31,12,43,32,14],"judgmentIndicies":[1,0,2],"internal_node_id":"0.0-3.0-0.0","time_elapsed":70047,"trial_index":3,"trial_type":"survey-likert","responses":"{\"Q0\":\"0\",\"Q1\":\"0\",\"Q2\":\"0\"}","rt":25489},{"control":false,"questionScores":[25,30,19,24,13,2401,2405,2413,2413,2412],"questionIndicies":[15,3,39,25,23,31,12,43,32,14],"judgmentIndicies":[1,0,2],"internal_node_id":"0.0-3.0-1.0","time_elapsed":87885,"trial_index":4,"trial_type":"survey-likert","responses":"{\"Q0\":\"3\",\"Q1\":\"6\",\"Q2\":\"3\"}","rt":16831},{"control":false,"questionScores":[25,30,19,24,13,2401,2405,2413,2413,2412],"questionIndicies":[15,3,39,25,23,31,12,43,32,14],"judgmentIndicies":[1,0,2],"internal_node_id":"0.0-3.0-2.0","time_elapsed":105392,"trial_index":5,"trial_type":"survey-likert","responses":"{\"Q0\":\"4\",\"Q1\":\"5\",\"Q2\":\"3\"}","rt":16500},{"control":false,"questionScores":[25,30,19,24,13,2401,2405,2413,2413,2412],"questionIndicies":[15,3,39,25,23,31,12,43,32,14],"judgmentIndicies":[1,0,2],"internal_node_id":"0.0-3.0-3.0","time_elapsed":120382,"trial_index":6,"trial_type":"survey-likert","responses":"{\"Q0\":\"6\",\"Q1\":\"4\",\"Q2\":\"4\"}","rt":13982},{"control":false,"questionScores":[25,30,19,24,13,2401,2405,2413,2413,2412],"questionIndicies":[15,3,39,25,23,31,12,43,32,14],"judgmentIndicies":[1,0,2],"internal_node_id":"0.0-3.0-4.0","time_elapsed":136003,"trial_index":7,"trial_type":"survey-likert","responses":"{\"Q0\":\"0\",\"Q1\":\"0\",\"Q2\":\"0\"}","rt":14615},{"control":false,"questionScores":[25,30,19,24,13,2401,2405,2413,2413,2412],"questionIndicies":[15,3,39,25,23,31,12,43,32,14],"judgmentIndicies":[1,0,2],"internal_node_id":"0.0-3.0-5.0","time_elapsed":157887,"trial_index":8,"trial_type":"survey-likert","responses":"{\"Q0\":\"2\",\"Q1\":\"1\",\"Q2\":\"2\"}","rt":20878},{"control":false,"questionScores":[25,30,19,24,13,2401,2405,2413,2413,2412],"questionIndicies":[15,3,39,25,23,31,12,43,32,14],"judgmentIndicies":[1,0,2],"internal_node_id":"0.0-3.0-6.0","time_elapsed":174939,"trial_index":9,"trial_type":"survey-likert","responses":"{\"Q0\":\"6\",\"Q1\":\"5\",\"Q2\":\"6\"}","rt":16045},{"control":false,"questionScores":[25,30,19,24,13,2401,2405,2413,2413,2412],"questionIndicies":[15,3,39,25,23,31,12,43,32,14],"judgmentIndicies":[1,0,2],"internal_node_id":"0.0-3.0-7.0","time_elapsed":189322,"trial_index":10,"trial_type":"survey-likert","responses":"{\"Q0\":\"6\",\"Q1\":\"6\",\"Q2\":\"6\"}","rt":13375},{"control":false,"questionScores":[25,30,19,24,13,2401,2405,2413,2413,2412],"questionIndicies":[15,3,39,25,23,31,12,43,32,14],"judgmentIndicies":[1,0,2],"internal_node_id":"0.0-3.0-8.0","time_elapsed":224533,"trial_index":11,"trial_type":"survey-likert","responses":"{\"Q0\":\"1\",\"Q1\":\"0\",\"Q2\":\"1\"}","rt":34204},{"control":false,"questionScores":[25,30,19,24,13,2401,2405,2413,2413,2412],"questionIndicies":[15,3,39,25,23,31,12,43,32,14],"judgmentIndicies":[1,0,2],"internal_node_id":"0.0-3.0-9.0","time_elapsed":237521,"trial_index":12,"trial_type":"survey-likert","responses":"{\"Q0\":\"5\",\"Q1\":\"6\",\"Q2\":\"4\"}","rt":11979}],"__v":0}
{"_id":{"$oid":"5aa46fd77150d00004258275"},"data":[{"control":false,"questionScores":[2413,21,2401,31,2390,30,27,26,2408,2414],"questionIndicies":[37,43,7,14,11,9,6,48,3,13],"judgmentIndicies":[1,0,2],"internal_node_id":"0.0-0.0","time_elapsed":72809,"trial_index":0,"trial_type":"survey-multi-choice","responses":"{\"Q0\":\"I consent to participate\"}","rt":72796},{"control":false,"questionScores":[2413,21,2401,31,2390,30,27,26,2408,2414],"questionIndicies":[37,43,7,14,11,9,6,48,3,13],"judgmentIndicies":[1,0,2],"internal_node_id":"0.0-1.0","time_elapsed":76548,"trial_index":1,"trial_type":"instructions","rt":2738,"view_history":"[{\"page_index\":0,\"viewing_time\":2736}]"},{"control":false,"questionScores":[2413,21,2401,31,2390,30,27,26,2408,2414],"questionIndicies":[37,43,7,14,11,9,6,48,3,13],"judgmentIndicies":[1,0,2],"internal_node_id":"0.0-2.0","time_elapsed":96572,"trial_index":2,"trial_type":"instructions","rt":19024,"view_history":"[{\"page_index\":0,\"viewing_time\":19024}]"},{"control":false,"questionScores":[2413,21,2401,31,2390,30,27,26,2408,2414],"questionIndicies":[37,43,7,14,11,9,6,48,3,13],"judgmentIndicies":[1,0,2],"internal_node_id":"0.0-3.0-0.0","time_elapsed":117546,"trial_index":3,"trial_type":"survey-likert","responses":"{\"Q0\":\"3\",\"Q1\":\"2\",\"Q2\":\"3\"}","rt":19967},{"control":false,"questionScores":[2413,21,2401,31,2390,30,27,26,2408,2414],"questionIndicies":[37,43,7,14,11,9,6,48,3,13],"judgmentIndicies":[1,0,2],"internal_node_id":"0.0-3.0-1.0","time_elapsed":130305,"trial_index":4,"trial_type":"survey-likert","responses":"{\"Q0\":\"1\",\"Q1\":\"3\",\"Q2\":\"0\"}","rt":11755},{"control":false,"questionScores":[2413,21,2401,31,2390,30,27,26,2408,2414],"questionIndicies":[37,43,7,14,11,9,6,48,3,13],"judgmentIndicies":[1,0,2],"internal_node_id":"0.0-3.0-2.0","time_elapsed":141773,"trial_index":5,"trial_type":"survey-likert","responses":"{\"Q0\":\"3\",\"Q1\":\"2\",\"Q2\":\"3\"}","rt":10464},{"control":false,"questionScores":[2413,21,2401,31,2390,30,27,26,2408,2414],"questionIndicies":[37,43,7,14,11,9,6,48,3,13],"judgmentIndicies":[1,0,2],"internal_node_id":"0.0-3.0-3.0","time_elapsed":158685,"trial_index":6,"trial_type":"survey-likert","responses":"{\"Q0\":\"1\",\"Q1\":\"3\",\"Q2\":\"0\"}","rt":15903},{"control":false,"questionScores":[2413,21,2401,31,2390,30,27,26,2408,2414],"questionIndicies":[37,43,7,14,11,9,6,48,3,13],"judgmentIndicies":[1,0,2],"internal_node_id":"0.0-3.0-4.0","time_elapsed":170304,"trial_index":7,"trial_type":"survey-likert","responses":"{\"Q0\":\"3\",\"Q1\":\"2\",\"Q2\":\"3\"}","rt":10611},{"control":false,"questionScores":[2413,21,2401,31,2390,30,27,26,2408,2414],"questionIndicies":[37,43,7,14,11,9,6,48,3,13],"judgmentIndicies":[1,0,2],"internal_node_id":"0.0-3.0-5.0","time_elapsed":188936,"trial_index":8,"trial_type":"survey-likert","responses":"{\"Q0\":\"1\",\"Q1\":\"4\",\"Q2\":\"0\"}","rt":17628},{"control":false,"questionScores":[2413,21,2401,31,2390,30,27,26,2408,2414],"questionIndicies":[37,43,7,14,11,9,6,48,3,13],"judgmentIndicies":[1,0,2],"internal_node_id":"0.0-3.0-6.0","time_elapsed":206434,"trial_index":9,"trial_type":"survey-likert","responses":"{\"Q0\":\"1\",\"Q1\":\"2\",\"Q2\":\"0\"}","rt":16493},{"control":false,"questionScores":[2413,21,2401,31,2390,30,27,26,2408,2414],"questionIndicies":[37,43,7,14,11,9,6,48,3,13],"judgmentIndicies":[1,0,2],"internal_node_id":"0.0-3.0-7.0","time_elapsed":223138,"trial_index":10,"trial_type":"survey-likert","responses":"{\"Q0\":\"1\",\"Q1\":\"5\",\"Q2\":\"0\"}","rt":15696},{"control":false,"questionScores":[2413,21,2401,31,2390,30,27,26,2408,2414],"questionIndicies":[37,43,7,14,11,9,6,48,3,13],"judgmentIndicies":[1,0,2],"internal_node_id":"0.0-3.0-8.0","time_elapsed":235509,"trial_index":11,"trial_type":"survey-likert","responses":"{\"Q0\":\"3\",\"Q1\":\"4\",\"Q2\":\"3\"}","rt":11364},{"control":false,"questionScores":[2413,21,2401,31,2390,30,27,26,2408,2414],"questionIndicies":[37,43,7,14,11,9,6,48,3,13],"judgmentIndicies":[1,0,2],"internal_node_id":"0.0-3.0-9.0","time_elapsed":246229,"trial_index":12,"trial_type":"survey-likert","responses":"{\"Q0\":\"3\",\"Q1\":\"1\",\"Q2\":\"3\"}","rt":9716}],"__v":0}
{"_id":{"$oid":"5aa46fe97150d00004258276"},"data":[{"control":false,"questionScores":[27,25,2409,2411,7,2407,2409,5,2417,26],"questionIndicies":[40,42,5,39,44,48,34,16,9,37],"judgmentIndicies":[1,2,0],"internal_node_id":"0.0-0.0","time_elapsed":36950,"trial_index":0,"trial_type":"survey-multi-choice","responses":"{\"Q0\":\"I consent to participate\"}","rt":36940},{"control":false,"questionScores":[27,25,2409,2411,7,2407,2409,5,2417,26],"questionIndicies":[40,42,5,39,44,48,34,16,9,37],"judgmentIndicies":[1,2,0],"internal_node_id":"0.0-1.0","time_elapsed":40601,"trial_index":1,"trial_type":"instructions","rt":2648,"view_history":"[{\"page_index\":0,\"viewing_time\":2648}]"},{"control":false,"questionScores":[27,25,2409,2411,7,2407,2409,5,2417,26],"questionIndicies":[40,42,5,39,44,48,34,16,9,37],"judgmentIndicies":[1,2,0],"internal_node_id":"0.0-2.0","time_elapsed":55056,"trial_index":2,"trial_type":"instructions","rt":13454,"view_history":"[{\"page_index\":0,\"viewing_time\":13453}]"},{"control":false,"questionScores":[27,25,2409,2411,7,2407,2409,5,2417,26],"questionIndicies":[40,42,5,39,44,48,34,16,9,37],"judgmentIndicies":[1,2,0],"internal_node_id":"0.0-3.0-0.0","time_elapsed":78505,"trial_index":3,"trial_type":"survey-likert","responses":"{\"Q0\":\"2\",\"Q1\":\"0\",\"Q2\":\"5\"}","rt":22437},{"control":false,"questionScores":[27,25,2409,2411,7,2407,2409,5,2417,26],"questionIndicies":[40,42,5,39,44,48,34,16,9,37],"judgmentIndicies":[1,2,0],"internal_node_id":"0.0-3.0-1.0","time_elapsed":95788,"trial_index":4,"trial_type":"survey-likert","responses":"{\"Q0\":\"2\",\"Q1\":\"0\",\"Q2\":\"1\"}","rt":16281},{"control":false,"questionScores":[27,25,2409,2411,7,2407,2409,5,2417,26],"questionIndicies":[40,42,5,39,44,48,34,16,9,37],"judgmentIndicies":[1,2,0],"internal_node_id":"0.0-3.0-2.0","time_elapsed":108062,"trial_index":5,"trial_type":"survey-likert","responses":"{\"Q0\":\"3\",\"Q1\":\"6\",\"Q2\":\"5\"}","rt":11266},{"control":false,"questionScores":[27,25,2409,2411,7,2407,2409,5,2417,26],"questionIndicies":[40,42,5,39,44,48,34,16,9,37],"judgmentIndicies":[1,2,0],"internal_node_id":"0.0-3.0-3.0","time_elapsed":126299,"trial_index":6,"trial_type":"survey-likert","responses":"{\"Q0\":\"4\",\"Q1\":\"6\",\"Q2\":\"1\"}","rt":17233},{"control":false,"questionScores":[27,25,2409,2411,7,2407,2409,5,2417,26],"questionIndicies":[40,42,5,39,44,48,34,16,9,37],"judgmentIndicies":[1,2,0],"internal_node_id":"0.0-3.0-4.0","time_elapsed":140737,"trial_index":7,"trial_type":"survey-likert","responses":"{\"Q0\":\"1\",\"Q1\":\"0\",\"Q2\":\"4\"}","rt":13434},{"control":false,"questionScores":[27,25,2409,2411,7,2407,2409,5,2417,26],"questionIndicies":[40,42,5,39,44,48,34,16,9,37],"judgmentIndicies":[1,2,0],"internal_node_id":"0.0-3.0-5.0","time_elapsed":175509,"trial_index":8,"trial_type":"survey-likert","responses":"{\"Q0\":\"5\",\"Q1\":\"6\",\"Q2\":\"5\"}","rt":33768},{"control":false,"questionScores":[27,25,2409,2411,7,2407,2409,5,2417,26],"questionIndicies":[40,42,5,39,44,48,34,16,9,37],"judgmentIndicies":[1,2,0],"internal_node_id":"0.0-3.0-6.0","time_elapsed":192426,"trial_index":9,"trial_type":"survey-likert","responses":"{\"Q0\":\"4\",\"Q1\":\"5\",\"Q2\":\"5\"}","rt":15907},{"control":false,"questionScores":[27,25,2409,2411,7,2407,2409,5,2417,26],"questionIndicies":[40,42,5,39,44,48,34,16,9,37],"judgmentIndicies":[1,2,0],"internal_node_id":"0.0-3.0-7.0","time_elapsed":203089,"trial_index":10,"trial_type":"survey-likert","responses":"{\"Q0\":\"1\",\"Q1\":\"0\",\"Q2\":\"2\"}","rt":9658},{"control":false,"questionScores":[27,25,2409,2411,7,2407,2409,5,2417,26],"questionIndicies":[40,42,5,39,44,48,34,16,9,37],"judgmentIndicies":[1,2,0],"internal_node_id":"0.0-3.0-8.0","time_elapsed":217522,"trial_index":11,"trial_type":"survey-likert","responses":"{\"Q0\":\"4\",\"Q1\":\"6\",\"Q2\":\"3\"}","rt":13430},{"control":false,"questionScores":[27,25,2409,2411,7,2407,2409,5,2417,26],"questionIndicies":[40,42,5,39,44,48,34,16,9,37],"judgmentIndicies":[1,2,0],"internal_node_id":"0.0-3.0-9.0","time_elapsed":240200,"trial_index":12,"trial_type":"survey-likert","responses":"{\"Q0\":\"2\",\"Q1\":\"0\",\"Q2\":\"5\"}","rt":21673}],"__v":0}
{"_id":{"$oid":"5aa46ff27150d00004258277"},"data":[{"control":false,"questionScores":[2406,2407,37,2411,26,24,2416,22,2405,19],"questionIndicies":[38,25,45,5,42,0,9,26,40,37],"judgmentIndicies":[2,1,0],"internal_node_id":"0.0-0.0","time_elapsed":8178,"trial_index":0,"trial_type":"survey-multi-choice","responses":"{\"Q0\":\"I consent to participate\"}","rt":8147},{"control":false,"questionScores":[2406,2407,37,2411,26,24,2416,22,2405,19],"questionIndicies":[38,25,45,5,42,0,9,26,40,37],"judgmentIndicies":[2,1,0],"internal_node_id":"0.0-1.0","time_elapsed":10877,"trial_index":1,"trial_type":"instructions","rt":1696,"view_history":"[{\"page_index\":0,\"viewing_time\":1695}]"},{"control":false,"questionScores":[2406,2407,37,2411,26,24,2416,22,2405,19],"questionIndicies":[38,25,45,5,42,0,9,26,40,37],"judgmentIndicies":[2,1,0],"internal_node_id":"0.0-2.0","time_elapsed":20008,"trial_index":2,"trial_type":"instructions","rt":8128,"view_history":"[{\"page_index\":0,\"viewing_time\":8127}]"},{"control":false,"questionScores":[2406,2407,37,2411,26,24,2416,22,2405,19],"questionIndicies":[38,25,45,5,42,0,9,26,40,37],"judgmentIndicies":[2,1,0],"internal_node_id":"0.0-3.0-0.0","time_elapsed":47354,"trial_index":3,"trial_type":"survey-likert","responses":"{\"Q0\":\"3\",\"Q1\":\"2\",\"Q2\":\"2\"}","rt":26336},{"control":false,"questionScores":[2406,2407,37,2411,26,24,2416,22,2405,19],"questionIndicies":[38,25,45,5,42,0,9,26,40,37],"judgmentIndicies":[2,1,0],"internal_node_id":"0.0-3.0-1.0","time_elapsed":57916,"trial_index":4,"trial_type":"survey-likert","responses":"{\"Q0\":\"2\",\"Q1\":\"1\",\"Q2\":\"1\"}","rt":9550},{"control":false,"questionScores":[2406,2407,37,2411,26,24,2416,22,2405,19],"questionIndicies":[38,25,45,5,42,0,9,26,40,37],"judgmentIndicies":[2,1,0],"internal_node_id":"0.0-3.0-2.0","time_elapsed":76807,"trial_index":5,"trial_type":"survey-likert","responses":"{\"Q0\":\"0\",\"Q1\":\"0\",\"Q2\":\"0\"}","rt":17882},{"control":false,"questionScores":[2406,2407,37,2411,26,24,2416,22,2405,19],"questionIndicies":[38,25,45,5,42,0,9,26,40,37],"judgmentIndicies":[2,1,0],"internal_node_id":"0.0-3.0-3.0","time_elapsed":85207,"trial_index":6,"trial_type":"survey-likert","responses":"{\"Q0\":\"2\",\"Q1\":\"1\",\"Q2\":\"0\"}","rt":7385},{"control":false,"questionScores":[2406,2407,37,2411,26,24,2416,22,2405,19],"questionIndicies":[38,25,45,5,42,0,9,26,40,37],"judgmentIndicies":[2,1,0],"internal_node_id":"0.0-3.0-4.0","time_elapsed":92712,"trial_index":7,"trial_type":"survey-likert","responses":"{\"Q0\":\"0\",\"Q1\":\"0\",\"Q2\":\"0\"}","rt":6495},{"control":false,"questionScores":[2406,2407,37,2411,26,24,2416,22,2405,19],"questionIndicies":[38,25,45,5,42,0,9,26,40,37],"judgmentIndicies":[2,1,0],"internal_node_id":"0.0-3.0-5.0","time_elapsed":105807,"trial_index":8,"trial_type":"survey-likert","responses":"{\"Q0\":\"0\",\"Q1\":\"0\",\"Q2\":\"0\"}","rt":12071},{"control":false,"questionScores":[2406,2407,37,2411,26,24,2416,22,2405,19],"questionIndicies":[38,25,45,5,42,0,9,26,40,37],"judgmentIndicies":[2,1,0],"internal_node_id":"0.0-3.0-6.0","time_elapsed":120671,"trial_index":9,"trial_type":"survey-likert","responses":"{\"Q0\":\"2\",\"Q1\":\"2\",\"Q2\":\"0\"}","rt":13855},{"control":false,"questionScores":[2406,2407,37,2411,26,24,2416,22,2405,19],"questionIndicies":[38,25,45,5,42,0,9,26,40,37],"judgmentIndicies":[2,1,0],"internal_node_id":"0.0-3.0-7.0","time_elapsed":126863,"trial_index":10,"trial_type":"survey-likert","responses":"{\"Q0\":\"0\",\"Q1\":\"0\",\"Q2\":\"0\"}","rt":5184},{"control":false,"questionScores":[2406,2407,37,2411,26,24,2416,22,2405,19],"questionIndicies":[38,25,45,5,42,0,9,26,40,37],"judgmentIndicies":[2,1,0],"internal_node_id":"0.0-3.0-8.0","time_elapsed":137356,"trial_index":11,"trial_type":"survey-likert","responses":"{\"Q0\":\"2\",\"Q1\":\"1\",\"Q2\":\"0\"}","rt":9479},{"control":false,"questionScores":[2406,2407,37,2411,26,24,2416,22,2405,19],"questionIndicies":[38,25,45,5,42,0,9,26,40,37],"judgmentIndicies":[2,1,0],"internal_node_id":"0.0-3.0-9.0","time_elapsed":145174,"trial_index":12,"trial_type":"survey-likert","responses":"{\"Q0\":\"0\",\"Q1\":\"0\",\"Q2\":\"0\"}","rt":6806}],"__v":0}
{"_id":{"$oid":"5aa46ff47150d00004258278"},"data":[{"control":false,"questionScores":[39,27,2411,2408,2399,26,19,2401,2400,27],"questionIndicies":[34,28,17,16,43,45,5,18,13,35],"judgmentIndicies":[1,2,0],"internal_node_id":"0.0-0.0","time_elapsed":15395,"trial_index":0,"trial_type":"survey-multi-choice","responses":"{\"Q0\":\"I consent to participate\"}","rt":15331},{"control":false,"questionScores":[39,27,2411,2408,2399,26,19,2401,2400,27],"questionIndicies":[34,28,17,16,43,45,5,18,13,35],"judgmentIndicies":[1,2,0],"internal_node_id":"0.0-1.0","time_elapsed":20600,"trial_index":1,"trial_type":"instructions","rt":4200,"view_history":"[{\"page_index\":0,\"viewing_time\":4198}]"},{"control":false,"questionScores":[39,27,2411,2408,2399,26,19,2401,2400,27],"questionIndicies":[34,28,17,16,43,45,5,18,13,35],"judgmentIndicies":[1,2,0],"internal_node_id":"0.0-2.0","time_elapsed":55076,"trial_index":2,"trial_type":"instructions","rt":33475,"view_history":"[{\"page_index\":0,\"viewing_time\":33472}]"},{"control":false,"questionScores":[39,27,2411,2408,2399,26,19,2401,2400,27],"questionIndicies":[34,28,17,16,43,45,5,18,13,35],"judgmentIndicies":[1,2,0],"internal_node_id":"0.0-3.0-0.0","time_elapsed":87861,"trial_index":3,"trial_type":"survey-likert","responses":"{\"Q0\":\"4\",\"Q1\":\"3\",\"Q2\":\"2\"}","rt":31752},{"control":false,"questionScores":[39,27,2411,2408,2399,26,19,2401,2400,27],"questionIndicies":[34,28,17,16,43,45,5,18,13,35],"judgmentIndicies":[1,2,0],"internal_node_id":"0.0-3.0-1.0","time_elapsed":113538,"trial_index":4,"trial_type":"survey-likert","responses":"{\"Q0\":\"2\",\"Q1\":\"2\",\"Q2\":\"6\"}","rt":24650},{"control":false,"questionScores":[39,27,2411,2408,2399,26,19,2401,2400,27],"questionIndicies":[34,28,17,16,43,45,5,18,13,35],"judgmentIndicies":[1,2,0],"internal_node_id":"0.0-3.0-2.0","time_elapsed":132232,"trial_index":5,"trial_type":"survey-likert","responses":"{\"Q0\":\"5\",\"Q1\":\"6\",\"Q2\":\"2\"}","rt":17668},{"control":false,"questionScores":[39,27,2411,2408,2399,26,19,2401,2400,27],"questionIndicies":[34,28,17,16,43,45,5,18,13,35],"judgmentIndicies":[1,2,0],"internal_node_id":"0.0-3.0-3.0","time_elapsed":157389,"trial_index":6,"trial_type":"survey-likert","responses":"{\"Q0\":\"6\",\"Q1\":\"6\",\"Q2\":\"4\"}","rt":24129},{"control":false,"questionScores":[39,27,2411,2408,2399,26,19,2401,2400,27],"questionIndicies":[34,28,17,16,43,45,5,18,13,35],"judgmentIndicies":[1,2,0],"internal_node_id":"0.0-3.0-4.0","time_elapsed":206052,"trial_index":7,"trial_type":"survey-likert","responses":"{\"Q0\":\"6\",\"Q1\":\"6\",\"Q2\":\"3\"}","rt":47640},{"control":false,"questionScores":[39,27,2411,2408,2399,26,19,2401,2400,27],"questionIndicies":[34,28,17,16,43,45,5,18,13,35],"judgmentIndicies":[1,2,0],"internal_node_id":"0.0-3.0-5.0","time_elapsed":221228,"trial_index":8,"trial_type":"survey-likert","responses":"{\"Q0\":\"1\",\"Q1\":\"1\",\"Q2\":\"0\"}","rt":14146},{"control":false,"questionScores":[39,27,2411,2408,2399,26,19,2401,2400,27],"questionIndicies":[34,28,17,16,43,45,5,18,13,35],"judgmentIndicies":[1,2,0],"internal_node_id":"0.0-3.0-6.0","time_elapsed":234103,"trial_index":9,"trial_type":"survey-likert","responses":"{\"Q0\":\"1\",\"Q1\":\"1\",\"Q2\":\"2\"}","rt":11848},{"control":false,"questionScores":[39,27,2411,2408,2399,26,19,2401,2400,27],"questionIndicies":[34,28,17,16,43,45,5,18,13,35],"judgmentIndicies":[1,2,0],"internal_node_id":"0.0-3.0-7.0","time_elapsed":252006,"trial_index":10,"trial_type":"survey-likert","responses":"{\"Q0\":\"6\",\"Q1\":\"6\",\"Q2\":\"6\"}","rt":16875},{"control":false,"questionScores":[39,27,2411,2408,2399,26,19,2401,2400,27],"questionIndicies":[34,28,17,16,43,45,5,18,13,35],"judgmentIndicies":[1,2,0],"internal_node_id":"0.0-3.0-8.0","time_elapsed":267778,"trial_index":11,"trial_type":"survey-likert","responses":"{\"Q0\":\"5\",\"Q1\":\"5\",\"Q2\":\"2\"}","rt":14736},{"control":false,"questionScores":[39,27,2411,2408,2399,26,19,2401,2400,27],"questionIndicies":[34,28,17,16,43,45,5,18,13,35],"judgmentIndicies":[1,2,0],"internal_node_id":"0.0-3.0-9.0","time_elapsed":281098,"trial_index":12,"trial_type":"survey-likert","responses":"{\"Q0\":\"1\",\"Q1\":\"1\",\"Q2\":\"1\"}","rt":12295}],"__v":0}
